onset	duration	trial_type	expected_response	given_response	response_time
 0.000	 4.074	Filler	0	0	 0.000
 4.074	 0.669	ISI	0	0	 0.000
 4.743	 0.354	Croix	0	0	 0.000
 5.097	 0.669	Noir	0	0	 0.000
 5.766	 0.689	pseudocomplex	1	0	 2147483.647
 6.455	 0.736	ISI	0	0	 0.000
 7.191	 0.354	croix	0	0	 0.000
 7.545	 0.669	Noir	0	0	 0.000
 8.214	 0.689	H	0	0	 0.000
 8.903	 0.602	ISI	0	0	 0.000
 9.505	 0.355	croix	0	0	 0.000
 9.860	 0.668	Noir	0	0	 0.000
 10.528	 0.689	complex	1	0	 2147483.647
 11.217	 0.602	ISI	0	0	 0.000
 11.819	 0.335	croix	0	0	 0.000
 12.154	 0.689	Noir	0	0	 0.000
 12.843	 0.688	complex	1	0	 2147483.647
 13.531	 0.870	ISI	0	0	 0.000
 14.401	 0.354	croix	0	0	 0.000
 14.755	 0.669	Noir	0	0	 0.000
 15.424	 0.689	complex	1	0	 2147483.647
 16.113	 0.736	ISI	0	0	 0.000
 16.849	 0.354	croix	0	0	 0.000
 17.203	 0.669	Noir	0	0	 0.000
 17.872	 0.689	H	0	0	 0.000
 18.561	 0.603	ISI	0	0	 0.000
 19.164	 0.334	croix	0	0	 0.000
 19.498	 0.689	Noir	0	0	 0.000
 20.187	 0.689	pseudocomplex	1	0	 2147483.647
 20.876	 0.602	ISI	0	0	 0.000
 21.478	 0.335	croix	0	0	 0.000
 21.813	 0.689	Noir	0	0	 0.000
 22.502	 0.668	complex	1	0	 2147483.647
 23.170	 0.556	ISI	0	0	 0.000
 23.726	 0.334	croix	0	0	 0.000
 24.060	 0.689	Noir	0	0	 0.000
 24.749	 0.669	H	0	0	 0.000
 25.418	 0.622	ISI	0	0	 0.000
 26.040	 0.334	croix	0	0	 0.000
 26.374	 0.689	Noir	0	0	 0.000
 27.063	 0.669	complex	1	0	 2147483.647
 27.732	 0.756	ISI	0	0	 0.000
 28.488	 0.334	croix	0	0	 0.000
 28.822	 0.689	Noir	0	0	 0.000
 29.511	 0.669	pseudocomplex	1	0	 2147483.647
 30.180	 0.956	ISI	0	0	 0.000
 31.136	 0.335	croix	0	0	 0.000
 31.471	 0.689	Noir	0	0	 0.000
 32.160	 0.668	pseudocomplex	1	0	 2147483.647
 32.828	 0.756	ISI	0	0	 0.000
 33.584	 0.335	croix	0	0	 0.000
 33.919	 0.689	Noir	0	0	 0.000
 34.608	 0.668	complex	1	0	 2147483.647
 35.276	 0.556	ISI	0	0	 0.000
 35.832	 0.334	croix	0	0	 0.000
 36.166	 0.690	Noir	0	0	 0.000
 36.856	 0.669	H	0	0	 0.000
 37.525	 0.756	ISI	0	0	 0.000
 38.281	 0.334	croix	0	0	 0.000
 38.615	 0.689	Noir	0	0	 0.000
 39.304	 0.669	complex	1	0	 2147483.647
 39.973	 0.822	ISI	0	0	 0.000
 40.795	 0.335	croix	0	0	 0.000
 41.130	 0.689	Noir	0	0	 0.000
 41.819	 0.668	pseudocomplex	1	0	 2147483.647
 42.487	 0.556	ISI	0	0	 0.000
 43.043	 0.334	croix	0	0	 0.000
 43.377	 0.689	Noir	0	0	 0.000
 44.066	 0.669	H	0	0	 0.000
 44.735	 0.689	ISI	0	0	 0.000
 45.424	 0.334	croix	0	0	 0.000
 45.758	 0.669	Noir	0	0	 0.000
 46.427	 0.689	pseudocomplex	1	0	 2147483.647
 47.116	 0.535	ISI	0	0	 0.000
 47.651	 0.354	croix	0	0	 0.000
 48.005	 0.669	Noir	0	0	 0.000
 48.674	 0.689	complex	1	0	 2147483.647
 49.363	 0.602	ISI	0	0	 0.000
 49.965	 0.355	croix	0	0	 0.000
 50.320	 0.668	Noir	0	0	 0.000
 50.988	 0.689	complex	1	0	 2147483.647
 51.677	 0.602	ISI	0	0	 0.000
 52.279	 0.355	croix	0	0	 0.000
 52.634	 0.669	Noir	0	0	 0.000
 53.303	 0.690	pseudocomplex	1	0	 2147483.647
 53.993	 0.601	ISI	0	0	 0.000
 54.594	 0.335	croix	0	0	 0.000
 54.929	 0.689	Noir	0	0	 0.000
 55.618	 0.689	complex	1	0	 2147483.647
 56.307	 0.535	ISI	0	0	 0.000
 56.842	 0.334	croix	0	0	 0.000
 57.176	 0.689	Noir	0	0	 0.000
 57.865	 0.669	H	0	0	 0.000
 58.534	 0.756	ISI	0	0	 0.000
 59.290	 0.334	croix	0	0	 0.000
 59.624	 0.689	Noir	0	0	 0.000
 60.313	 0.669	complex	1	0	 2147483.647
 60.982	 0.622	ISI	0	0	 0.000
 61.604	 0.334	croix	0	0	 0.000
 61.938	 0.689	Noir	0	0	 0.000
 62.627	 0.669	H	0	0	 0.000
 63.296	 0.689	ISI	0	0	 0.000
 63.985	 0.334	croix	0	0	 0.000
 64.319	 0.689	Noir	0	0	 0.000
 65.008	 0.669	complex	1	0	 2147483.647
 65.677	 0.823	ISI	0	0	 0.000
 66.500	 0.334	croix	0	0	 0.000
 66.834	 0.689	Noir	0	0	 0.000
 67.523	 0.669	pseudocomplex	1	0	 2147483.647
 68.192	 0.555	ISI	0	0	 0.000
 68.747	 0.335	croix	0	0	 0.000
 69.082	 0.689	Noir	0	0	 0.000
 69.771	 0.668	complex	1	0	 2147483.647
 70.439	 0.756	ISI	0	0	 0.000
 71.195	 0.336	croix	0	0	 0.000
 71.531	 0.688	Noir	0	0	 0.000
 72.219	 0.669	pseudocomplex	1	0	 2147483.647
 72.888	 0.823	ISI	0	0	 0.000
 73.711	 0.334	croix	0	0	 0.000
 74.045	 0.689	Noir	0	0	 0.000
 74.734	 0.669	complex	1	0	 2147483.647
 75.403	 0.622	ISI	0	0	 0.000
 76.025	 0.335	croix	0	0	 0.000
 76.360	 0.668	Noir	0	0	 0.000
 77.028	 0.689	H	0	0	 0.000
 77.717	 0.535	ISI	0	0	 0.000
 78.252	 0.355	croix	0	0	 0.000
 78.607	 0.669	Noir	0	0	 0.000
 79.276	 0.689	complex	1	0	 2147483.647
 79.965	 0.535	ISI	0	0	 0.000
 80.500	 0.354	croix	0	0	 0.000
 80.854	 0.669	Noir	0	0	 0.000
 81.523	 0.689	pseudocomplex	1	0	 2147483.647
 82.212	 0.602	ISI	0	0	 0.000
 82.814	 0.334	croix	0	0	 0.000
 83.148	 0.689	Noir	0	0	 0.000
 83.837	 0.689	H	0	0	 0.000
 84.526	 0.870	ISI	0	0	 0.000
 85.396	 0.354	croix	0	0	 0.000
 85.750	 0.669	Noir	0	0	 0.000
 86.419	 0.689	pseudocomplex	1	0	 2147483.647
 87.108	 0.602	ISI	0	0	 0.000
 87.710	 0.334	croix	0	0	 0.000
 88.044	 0.690	Noir	0	0	 0.000
 88.734	 0.689	H	0	0	 0.000
 89.423	 0.669	ISI	0	0	 0.000
 90.092	 0.334	croix	0	0	 0.000
 90.426	 0.689	Noir	0	0	 0.000
 91.115	 0.689	complex	1	0	 2147483.647
 91.804	 0.736	ISI	0	0	 0.000
 92.540	 0.334	croix	0	0	 0.000
 92.874	 0.689	Noir	0	0	 0.000
 93.563	 0.689	pseudocomplex	1	0	 2147483.647
 94.252	 0.535	ISI	0	0	 0.000
 94.787	 0.334	croix	0	0	 0.000
 95.121	 0.689	Noir	0	0	 0.000
 95.810	 0.669	complex	1	0	 2147483.647
 96.479	 1.157	ISI	0	0	 0.000
 97.636	 0.355	croix	0	0	 0.000
 97.991	 0.669	Noir	0	0	 0.000
 98.660	 0.689	pseudocomplex	1	0	 2147483.647
 99.349	 0.936	ISI	0	0	 0.000
 100.285	 0.354	croix	0	0	 0.000
 100.639	 0.669	Noir	0	0	 0.000
 101.308	 0.689	pseudocomplex	1	0	 2147483.647
 101.997	 0.602	ISI	0	0	 0.000
 102.599	 0.355	croix	0	0	 0.000
 102.954	 0.668	Noir	0	0	 0.000
 103.622	 0.689	pseudocomplex	1	0	 2147483.647
 104.311	 1.693	ISI	0	0	 0.000
 106.004	 0.335	croix	0	0	 0.000
 106.339	 0.689	Noir	0	0	 0.000
 107.028	 0.689	H	0	0	 0.000
 107.717	 0.869	ISI	0	0	 0.000
 108.586	 0.355	croix	0	0	 0.000
 108.941	 0.669	Noir	0	0	 0.000
 109.610	 0.688	pseudocomplex	1	0	 2147483.647
 110.298	 0.669	ISI	0	0	 0.000
 110.967	 0.335	croix	0	0	 0.000
 111.302	 0.689	Noir	0	0	 0.000
 111.991	 0.689	pseudocomplex	1	0	 2147483.647
 112.680	 0.601	ISI	0	0	 0.000
 113.281	 0.335	croix	0	0	 0.000
 113.616	 0.689	Noir	0	0	 0.000
 114.305	 0.669	pseudocomplex	1	0	 2147483.647
 114.974	 0.555	ISI	0	0	 0.000
 115.529	 0.334	croix	0	0	 0.000
 115.863	 0.689	Noir	0	0	 0.000
 116.552	 0.669	H	0	0	 0.000
 117.221	 0.756	ISI	0	0	 0.000
 117.977	 0.334	croix	0	0	 0.000
 118.311	 0.689	Noir	0	0	 0.000
 119.000	 0.669	pseudocomplex	1	0	 2147483.647
 119.669	 1.291	ISI	0	0	 0.000
 120.960	 0.354	croix	0	0	 0.000
 121.314	 0.669	Noir	0	0	 0.000
 121.983	 0.689	complex	1	0	 2147483.647
 122.672	 0.736	ISI	0	0	 0.000
 123.408	 0.355	croix	0	0	 0.000
 123.763	 0.669	Noir	0	0	 0.000
 124.432	 0.689	pseudocomplex	1	0	 2147483.647
 125.121	 0.736	ISI	0	0	 0.000
 125.857	 0.354	croix	0	0	 0.000
 126.211	 0.669	Noir	0	0	 0.000
 126.880	 0.689	complex	1	0	 2147483.647
 127.569	 0.535	ISI	0	0	 0.000
 128.104	 0.334	croix	0	0	 0.000
 128.438	 0.689	Noir	0	0	 0.000
 129.127	 0.689	H	0	0	 0.000
 129.816	 0.669	ISI	0	0	 0.000
 130.485	 0.334	croix	0	0	 0.000
 130.819	 0.689	Noir	0	0	 0.000
 131.508	 0.689	pseudocomplex	1	0	 2147483.647
 132.197	 0.803	ISI	0	0	 0.000
 133.000	 0.334	croix	0	0	 0.000
 133.334	 0.689	Noir	0	0	 0.000
 134.023	 0.689	complex	1	0	 2147483.647
 134.712	 0.602	ISI	0	0	 0.000
 135.314	 0.334	croix	0	0	 0.000
 135.648	 0.689	Noir	0	0	 0.000
 136.337	 0.669	H	0	0	 0.000
 137.006	 0.555	ISI	0	0	 0.000
 137.561	 0.335	croix	0	0	 0.000
 137.896	 0.689	Noir	0	0	 0.000
 138.585	 0.668	pseudocomplex	1	0	 2147483.647
 139.253	 0.623	ISI	0	0	 0.000
 139.876	 0.334	croix	0	0	 0.000
 140.210	 0.689	Noir	0	0	 0.000
 140.899	 0.670	complex	1	0	 2147483.647
 141.569	 0.889	ISI	0	0	 0.000
 142.458	 0.335	croix	0	0	 0.000
 142.793	 0.689	Noir	0	0	 0.000
 143.482	 0.668	pseudocomplex	1	0	 2147483.647
 144.150	 0.689	ISI	0	0	 0.000
 144.839	 0.335	croix	0	0	 0.000
 145.174	 0.689	Noir	0	0	 0.000
 145.863	 0.668	H	0	0	 0.000
 146.531	 0.689	ISI	0	0	 0.000
 147.220	 0.335	croix	0	0	 0.000
 147.555	 0.689	Noir	0	0	 0.000
 148.244	 0.669	pseudocomplex	1	0	 2147483.647
 148.913	 0.755	ISI	0	0	 0.000
 149.668	 0.335	croix	0	0	 0.000
 150.003	 0.689	Noir	0	0	 0.000
 150.692	 0.669	complex	1	0	 2147483.647
 151.361	 0.755	ISI	0	0	 0.000
 152.116	 0.335	croix	0	0	 0.000
 152.451	 0.689	Noir	0	0	 0.000
 153.140	 0.668	complex	1	0	 2147483.647
 153.808	 0.623	ISI	0	0	 0.000
 154.431	 0.334	croix	0	0	 0.000
 154.765	 0.689	Noir	0	0	 0.000
 155.454	 0.669	H	0	0	 0.000
 156.123	 0.622	ISI	0	0	 0.000
 156.745	 0.334	croix	0	0	 0.000
 157.079	 0.669	Noir	0	0	 0.000
 157.748	 0.689	pseudocomplex	1	0	 2147483.647
 158.437	 0.690	ISI	0	0	 0.000
 159.127	 0.334	croix	0	0	 0.000
 159.461	 0.669	Noir	0	0	 0.000
 160.130	 0.689	pseudocomplex	1	0	 2147483.647
 160.819	 0.669	ISI	0	0	 0.000
 161.488	 0.354	croix	0	0	 0.000
 161.842	 0.669	Noir	0	0	 0.000
 162.511	 0.689	complex	1	0	 2147483.647
 163.200	 0.602	ISI	0	0	 0.000
 163.802	 0.354	croix	0	0	 0.000
 164.156	 0.669	Noir	0	0	 0.000
 164.825	 0.689	complex	1	0	 2147483.647
 165.514	 0.535	ISI	0	0	 0.000
 166.049	 0.335	croix	0	0	 0.000
 166.384	 0.689	Noir	0	0	 0.000
 167.073	 0.689	H	0	0	 0.000
 167.762	 0.535	ISI	0	0	 0.000
 168.297	 0.334	croix	0	0	 0.000
 168.631	 0.689	Noir	0	0	 0.000
 169.320	 0.669	pseudocomplex	1	0	 2147483.647
 169.989	 0.622	ISI	0	0	 0.000
 170.611	 0.334	croix	0	0	 0.000
 170.945	 0.689	Noir	0	0	 0.000
 171.634	 0.669	H	0	0	 0.000
 172.303	 0.622	ISI	0	0	 0.000
 172.925	 0.334	croix	0	0	 0.000
 173.259	 0.689	Noir	0	0	 0.000
 173.948	 0.669	pseudocomplex	1	0	 2147483.647
 174.617	 0.622	ISI	0	0	 0.000
 175.239	 0.335	croix	0	0	 0.000
 175.574	 0.689	Noir	0	0	 0.000
 176.263	 0.669	pseudocomplex	1	0	 2147483.647
 176.932	 0.555	ISI	0	0	 0.000
 177.487	 0.335	croix	0	0	 0.000
 177.822	 0.669	Noir	0	0	 0.000
 178.491	 0.689	pseudocomplex	1	0	 2147483.647
 179.180	 0.822	ISI	0	0	 0.000
 180.002	 0.335	croix	0	0	 0.000
 180.337	 0.668	Noir	0	0	 0.000
 181.005	 0.689	pseudocomplex	1	0	 2147483.647
 181.694	 0.602	ISI	0	0	 0.000
 182.296	 0.355	croix	0	0	 0.000
 182.651	 0.669	Noir	0	0	 0.000
 183.320	 0.689	H	0	0	 0.000
 184.009	 0.668	ISI	0	0	 0.000
 184.677	 0.355	croix	0	0	 0.000
 185.032	 0.669	Noir	0	0	 0.000
 185.701	 0.689	pseudocomplex	1	0	 2147483.647
 186.390	 0.735	ISI	0	0	 0.000
 187.125	 0.355	croix	0	0	 0.000
 187.480	 0.669	Noir	0	0	 0.000
 188.149	 0.689	complex	1	0	 2147483.647
 188.838	 0.602	ISI	0	0	 0.000
 189.440	 0.354	croix	0	0	 0.000
 189.794	 0.669	Noir	0	0	 0.000
 190.463	 0.689	H	0	0	 0.000
 191.152	 0.735	ISI	0	0	 0.000
 191.887	 0.355	croix	0	0	 0.000
 192.242	 0.669	Noir	0	0	 0.000
 192.911	 0.689	complex	1	0	 2147483.647
 193.600	 0.603	ISI	0	0	 0.000
 194.203	 0.334	croix	0	0	 0.000
 194.537	 0.689	Noir	0	0	 0.000
 195.226	 0.689	complex	1	0	 2147483.647
 195.915	 0.535	ISI	0	0	 0.000
 196.450	 0.334	croix	0	0	 0.000
 196.784	 0.689	Noir	0	0	 0.000
 197.473	 0.669	pseudocomplex	1	0	 2147483.647
 198.142	 0.622	ISI	0	0	 0.000
 198.764	 0.335	croix	0	0	 0.000
 199.099	 0.689	Noir	0	0	 0.000
 199.788	 0.668	complex	1	0	 2147483.647
 200.456	 0.689	ISI	0	0	 0.000
 201.145	 0.335	croix	0	0	 0.000
 201.480	 0.689	Noir	0	0	 0.000
 202.169	 0.668	H	0	0	 0.000
 202.837	 0.890	ISI	0	0	 0.000
 203.727	 0.334	croix	0	0	 0.000
 204.061	 0.689	Noir	0	0	 0.000
 204.750	 0.669	complex	1	0	 2147483.647
 205.419	 0.555	ISI	0	0	 0.000
 205.974	 0.335	croix	0	0	 0.000
 206.309	 0.689	Noir	0	0	 0.000
 206.998	 0.668	complex	1	0	 2147483.647
 207.666	 0.823	ISI	0	0	 0.000
 208.489	 0.335	croix	0	0	 0.000
 208.824	 0.688	Noir	0	0	 0.000
 209.512	 0.669	H	0	0	 0.000
 210.181	 1.025	ISI	0	0	 0.000
 211.206	 0.334	croix	0	0	 0.000
 211.540	 0.689	Noir	0	0	 0.000
 212.229	 0.669	complex	1	0	 2147483.647
 212.898	 0.689	ISI	0	0	 0.000
 213.587	 0.334	croix	0	0	 0.000
 213.921	 0.689	Noir	0	0	 0.000
 214.610	 0.669	complex	1	0	 2147483.647
 215.279	 0.689	ISI	0	0	 0.000
 215.968	 0.334	croix	0	0	 0.000
 216.302	 0.689	Noir	0	0	 0.000
 216.991	 0.669	complex	1	0	 2147483.647
 217.660	 0.555	ISI	0	0	 0.000
 218.215	 0.334	croix	0	0	 0.000
 218.549	 0.689	Noir	0	0	 0.000
 219.238	 0.669	pseudocomplex	1	0	 2147483.647
 219.907	 0.555	ISI	0	0	 0.000
 220.462	 0.335	croix	0	0	 0.000
 220.797	 0.669	Noir	0	0	 0.000
 221.466	 0.689	H	0	0	 0.000
 222.155	 0.535	ISI	0	0	 0.000
 222.690	 0.354	croix	0	0	 0.000
 223.044	 0.669	Noir	0	0	 0.000
 223.713	 0.689	pseudocomplex	1	0	 2147483.647
 224.402	 0.823	ISI	0	0	 0.000
 225.225	 0.334	croix	0	0	 0.000
 225.559	 0.669	Noir	0	0	 0.000
 226.228	 0.689	pseudocomplex	1	0	 2147483.647
 226.917	 0.889	ISI	0	0	 0.000
 227.806	 0.335	croix	0	0	 0.000
 228.141	 0.669	Noir	0	0	 0.000
 228.810	 0.689	complex	1	0	 2147483.647
 229.499	 0.622	ISI	0	0	 0.000
 230.121	 0.335	croix	0	0	 0.000
 230.456	 0.669	Noir	0	0	 0.000
 231.125	 0.689	H	0	0	 0.000
 231.814	 0.535	ISI	0	0	 0.000
 232.349	 0.354	croix	0	0	 0.000
 232.703	 0.669	Noir	0	0	 0.000
 233.372	 0.689	pseudocomplex	1	0	 2147483.647
 234.061	 0.669	ISI	0	0	 0.000
 234.730	 0.354	croix	0	0	 0.000
 235.084	 0.669	Noir	0	0	 0.000
 235.753	 0.689	pseudocomplex	1	0	 2147483.647
 236.442	 0.669	ISI	0	0	 0.000
 237.111	 0.354	croix	0	0	 0.000
 237.465	 0.669	Noir	0	0	 0.000
 238.134	 0.689	pseudocomplex	1	0	 2147483.647
 238.823	 0.669	ISI	0	0	 0.000
 239.492	 0.334	croix	0	0	 0.000
 239.826	 0.689	Noir	0	0	 0.000
 240.515	 0.689	H	0	0	 0.000
 241.204	 0.736	ISI	0	0	 0.000
 241.940	 0.334	croix	0	0	 0.000
 242.274	 0.689	Noir	0	0	 0.000
 242.963	 0.689	pseudocomplex	1	0	 2147483.647
 243.652	 0.602	ISI	0	0	 0.000
 244.254	 0.334	croix	0	0	 0.000
 244.588	 0.689	Noir	0	0	 0.000
 245.277	 0.669	complex	1	0	 2147483.647
 245.946	 0.556	ISI	0	0	 0.000
 246.502	 0.335	croix	0	0	 0.000
 246.837	 0.689	Noir	0	0	 0.000
 247.526	 0.668	H	0	0	 0.000
 248.194	 0.756	ISI	0	0	 0.000
 248.950	 0.335	croix	0	0	 0.000
 249.285	 0.689	Noir	0	0	 0.000
 249.974	 0.668	pseudocomplex	1	0	 2147483.647
 250.642	 0.622	ISI	0	0	 0.000
 251.264	 0.335	croix	0	0	 0.000
 251.599	 0.689	Noir	0	0	 0.000
 252.288	 0.669	complex	1	0	 2147483.647
 252.957	 0.622	ISI	0	0	 0.000
 253.579	 0.334	croix	0	0	 0.000
 253.913	 0.689	Noir	0	0	 0.000
 254.602	 0.669	complex	1	0	 2147483.647
 255.271	 0.622	ISI	0	0	 0.000
 255.893	 0.334	croix	0	0	 0.000
 256.227	 0.669	Noir	0	0	 0.000
 256.896	 0.689	H	0	0	 0.000
 257.585	 0.602	ISI	0	0	 0.000
 258.187	 0.354	croix	0	0	 0.000
 258.541	 0.669	Noir	0	0	 0.000
 259.210	 0.689	complex	1	0	 2147483.647
 259.899	 0.602	ISI	0	0	 0.000
 260.501	 0.355	croix	0	0	 0.000
 260.856	 0.668	Noir	0	0	 0.000
 261.524	 0.689	pseudocomplex	1	0	 2147483.647
 262.213	 0.602	ISI	0	0	 0.000
 262.815	 0.355	croix	0	0	 0.000
 263.170	 0.670	Noir	0	0	 0.000
 263.840	 0.689	H	0	0	 0.000
 264.529	 0.802	ISI	0	0	 0.000
 265.331	 0.355	croix	0	0	 0.000
 265.686	 0.668	Noir	0	0	 0.000
 266.354	 0.689	complex	1	0	 2147483.647
 267.043	 0.535	ISI	0	0	 0.000
 267.578	 0.335	croix	0	0	 0.000
 267.913	 0.689	Noir	0	0	 0.000
 268.602	 0.689	pseudocomplex	1	0	 2147483.647
 269.291	 0.535	ISI	0	0	 0.000
 269.826	 0.334	croix	0	0	 0.000
 270.160	 0.689	Noir	0	0	 0.000
 270.849	 0.669	H	0	0	 0.000
 271.518	 0.689	ISI	0	0	 0.000
 272.207	 0.334	croix	0	0	 0.000
 272.541	 0.689	Noir	0	0	 0.000
 273.230	 0.669	complex	1	0	 2147483.647
 273.899	 0.555	ISI	0	0	 0.000
 274.454	 0.335	croix	0	0	 0.000
 274.789	 0.688	Noir	0	0	 0.000
 275.477	 0.669	complex	1	0	 2147483.647
 276.146	 0.555	ISI	0	0	 0.000
 276.701	 0.335	croix	0	0	 0.000
 277.036	 0.669	Noir	0	0	 0.000
 277.705	 0.689	H	0	0	 0.000
 278.394	 0.689	ISI	0	0	 0.000
 279.083	 0.334	croix	0	0	 0.000
 279.417	 0.669	Noir	0	0	 0.000
 280.086	 0.689	complex	1	0	 2147483.647
 280.775	 0.823	ISI	0	0	 0.000
 281.598	 0.335	croix	0	0	 0.000
 281.933	 0.669	Noir	0	0	 0.000
 282.602	 0.688	complex	1	0	 2147483.647
 283.290	 0.689	ISI	0	0	 0.000
 283.979	 0.335	croix	0	0	 0.000
 284.314	 0.669	Noir	0	0	 0.000
 284.983	 0.689	complex	1	0	 2147483.647
 285.672	 0.601	ISI	0	0	 0.000
 286.273	 0.355	croix	0	0	 0.000
 286.628	 0.669	Noir	0	0	 0.000
 287.297	 0.689	pseudocomplex	1	0	 2147483.647
 287.986	 0.602	ISI	0	0	 0.000
 288.588	 0.354	croix	0	0	 0.000
 288.942	 0.669	Noir	0	0	 0.000
 289.611	 0.689	H	0	0	 0.000
 290.300	 0.669	ISI	0	0	 0.000
 290.969	 0.354	croix	0	0	 0.000
 291.323	 0.669	Noir	0	0	 0.000
 291.992	 0.689	complex	1	0	 2147483.647
 292.681	 0.936	ISI	0	0	 0.000
 293.617	 0.355	croix	0	0	 0.000
 293.972	 0.669	Noir	0	0	 0.000
 294.641	 0.689	pseudocomplex	1	0	 2147483.647
 295.330	 0.668	ISI	0	0	 0.000
 295.998	 0.355	croix	0	0	 0.000
 296.353	 0.669	Noir	0	0	 0.000
 297.022	 0.689	pseudocomplex	1	0	 2147483.647
 297.711	 1.358	ISI	0	0	 0.000
 299.069	 0.335	croix	0	0	 0.000
 299.404	 0.689	Noir	0	0	 0.000
 300.093	 0.669	pseudocomplex	1	0	 2147483.647
 300.762	 0.889	ISI	0	0	 0.000
 301.651	 0.335	croix	0	0	 0.000
 301.986	 0.688	Noir	0	0	 0.000
 302.674	 0.669	H	0	0	 0.000
 303.343	 1.157	ISI	0	0	 0.000
 304.500	 0.355	croix	0	0	 0.000
 304.855	 0.669	Noir	0	0	 0.000
 305.524	 0.689	complex	1	0	 2147483.647
 306.213	 0.602	ISI	0	0	 0.000
 306.815	 0.334	croix	0	0	 0.000
 307.149	 0.689	Noir	0	0	 0.000
 307.838	 0.689	pseudocomplex	1	0	 2147483.647
 308.527	 0.735	ISI	0	0	 0.000
 309.262	 0.335	croix	0	0	 0.000
 309.597	 0.689	Noir	0	0	 0.000
 310.286	 0.689	H	0	0	 0.000
 310.975	 0.535	ISI	0	0	 0.000
 311.510	 0.334	croix	0	0	 0.000
 311.844	 0.689	Noir	0	0	 0.000
 312.533	 0.669	complex	1	0	 2147483.647
 313.202	 0.555	ISI	0	0	 0.000
 313.757	 0.335	croix	0	0	 0.000
 314.092	 0.688	Noir	0	0	 0.000
 314.780	 0.669	complex	1	0	 2147483.647
 315.449	 0.690	ISI	0	0	 0.000
 316.139	 0.335	croix	0	0	 0.000
 316.474	 0.689	Noir	0	0	 0.000
 317.163	 0.668	pseudocomplex	1	0	 2147483.647
 317.831	 0.622	ISI	0	0	 0.000
 318.453	 0.335	croix	0	0	 0.000
 318.788	 0.689	Noir	0	0	 0.000
 319.477	 0.669	complex	1	0	 2147483.647
 320.146	 0.622	ISI	0	0	 0.000
 320.768	 0.334	croix	0	0	 0.000
 321.102	 0.669	Noir	0	0	 0.000
 321.771	 0.689	H	0	0	 0.000
 322.460	 0.822	ISI	0	0	 0.000
 323.282	 0.335	croix	0	0	 0.000
 323.617	 0.669	Noir	0	0	 0.000
 324.286	 0.689	complex	1	0	 2147483.647
 324.975	 0.535	ISI	0	0	 0.000
 325.510	 0.354	croix	0	0	 0.000
 325.864	 0.669	Noir	0	0	 0.000
 326.533	 0.689	pseudocomplex	1	0	 2147483.647
 327.222	 0.602	ISI	0	0	 0.000
 327.824	 0.354	croix	0	0	 0.000
 328.178	 0.669	Noir	0	0	 0.000
 328.847	 0.689	pseudocomplex	1	0	 2147483.647
 329.536	 0.669	ISI	0	0	 0.000
 330.205	 4.080	Filler	0	0	 0.000
