onset	duration	trial_type	expected_response	given_response	response_time
 0.000	 4.073	0	0	0	 0.000
 4.073	 2.047	8	0	0	 0.000
 6.120	 0.401	0	0	0	 0.000
 6.521	 2.046	8	0	0	 0.000
 8.567	 1.359	0	0	0	 0.000
 9.926	 2.027	0	0	0	 0.000
 11.953	 0.133	1	0	0	 0.000
 12.086	 0.154	1	0	0	 0.000
 12.240	 0.134	1	0	0	 0.000
 12.374	 0.134	1	0	0	 0.000
 12.508	 0.134	1	0	0	 0.000
 12.642	 0.133	1	0	0	 0.000
 12.775	 0.134	1	0	0	 0.000
 12.909	 0.134	1	0	0	 0.000
 13.043	 0.134	1	0	0	 0.000
 13.177	 0.133	1	0	0	 0.000
 13.310	 0.154	1	0	0	 0.000
 13.464	 0.134	1	0	0	 0.000
 13.598	 1.157	0	0	0	 0.000
 14.755	 0.268	3	2	0	 2147483.647
 15.023	 0.267	3	0	0	 0.000
 15.290	 0.268	3	0	0	 0.000
 15.558	 0.267	3	0	0	 0.000
 15.825	 2.602	0	0	0	 0.000
 18.427	 2.027	10	0	0	 0.000
 20.454	 1.023	0	0	0	 0.000
 21.477	 0.268	5	4	0	 2147483.647
 21.745	 0.287	5	0	0	 0.000
 22.032	 0.268	5	0	0	 0.000
 22.300	 0.267	5	0	0	 0.000
 22.567	 1.692	0	1	0	 2147483.647
 24.259	 2.047	10	0	0	 0.000
 26.306	 1.024	0	0	0	 0.000
 27.330	 2.582	4	2	0	 2147483.647
 29.912	 0.468	0	0	0	 0.000
 30.380	 2.582	6	4	0	 2147483.647
 32.962	 0.488	0	0	0	 0.000
 33.450	 2.047	10	0	0	 0.000
 35.497	 1.358	0	0	0	 0.000
 36.855	 0.133	2	0	0	 0.000
 36.988	 0.134	2	0	0	 0.000
 37.122	 0.134	2	0	0	 0.000
 37.256	 0.134	2	0	0	 0.000
 37.390	 0.133	2	0	0	 0.000
 37.523	 0.134	2	0	0	 0.000
 37.657	 0.134	2	0	0	 0.000
 37.791	 0.154	2	0	0	 0.000
 37.945	 0.134	2	0	0	 0.000
 38.079	 0.133	2	0	0	 0.000
 38.212	 0.134	2	0	0	 0.000
 38.346	 0.134	2	0	0	 0.000
 38.480	 0.823	0	0	0	 0.000
 39.303	 0.267	7	0	0	 0.000
 39.570	 0.268	7	0	0	 0.000
 39.838	 0.267	7	0	0	 0.000
 40.105	 0.288	7	0	0	 0.000
 40.393	 2.582	0	0	0	 0.000
 42.975	 0.267	9	0	0	 0.000
 43.242	 0.268	9	0	0	 0.000
 43.510	 0.267	9	0	0	 0.000
 43.777	 0.288	9	0	0	 0.000
 44.065	 1.071	0	0	0	 0.000
 45.136	 0.288	9	0	0	 0.000
 45.424	 0.267	9	0	0	 0.000
 45.691	 0.268	9	0	0	 0.000
 45.959	 0.267	9	0	0	 0.000
 46.226	 1.980	0	0	0	 0.000
 48.206	 0.267	7	0	0	 0.000
 48.473	 0.268	7	0	0	 0.000
 48.741	 0.288	7	0	0	 0.000
 49.029	 0.267	7	0	0	 0.000
 49.296	 2.314	0	0	0	 0.000
 51.610	 0.268	7	0	0	 0.000
 51.878	 0.267	7	0	0	 0.000
 52.145	 0.268	7	0	0	 0.000
 52.413	 0.288	7	0	0	 0.000
 52.701	 1.692	0	0	0	 0.000
 54.393	 3.050	0	0	0	 0.000
 57.443	 2.802	0	0	0	 0.000
 60.245	 0.268	9	0	0	 0.000
 60.513	 0.267	9	0	0	 0.000
 60.780	 0.268	9	0	0	 0.000
 61.048	 0.287	9	0	0	 0.000
 61.335	 2.583	0	0	0	 0.000
 63.918	 0.134	1	0	0	 0.000
 64.052	 0.133	1	0	0	 0.000
 64.185	 0.134	1	0	0	 0.000
 64.319	 0.134	1	0	0	 0.000
 64.453	 0.134	1	0	0	 0.000
 64.587	 0.134	1	0	0	 0.000
 64.721	 0.153	1	0	0	 0.000
 64.874	 0.134	1	0	0	 0.000
 65.008	 0.134	1	0	0	 0.000
 65.142	 0.134	1	0	0	 0.000
 65.276	 0.133	1	0	0	 0.000
 65.409	 0.134	1	0	0	 0.000
 65.543	 1.157	0	0	0	 0.000
 66.700	 3.672	4	2	0	 2147483.647
 70.372	 3.070	0	0	0	 0.000
 73.442	 0.268	5	4	0	 2147483.647
 73.710	 0.267	5	0	0	 0.000
 73.977	 0.268	5	0	0	 0.000
 74.245	 0.267	5	0	0	 0.000
 74.512	 1.378	0	0	0	 0.000
 75.890	 2.027	6	4	0	 2147483.647
 77.917	 1.646	0	0	0	 0.000
 79.563	 0.268	9	0	0	 0.000
 79.831	 0.267	9	0	0	 0.000
 80.098	 0.268	9	0	0	 0.000
 80.366	 0.267	9	0	0	 0.000
 80.633	 1.980	0	0	0	 0.000
 82.613	 2.448	0	0	0	 0.000
 85.061	 3.070	0	0	0	 0.000
 88.131	 0.267	7	0	0	 0.000
 88.398	 0.268	7	0	0	 0.000
 88.666	 0.267	7	0	0	 0.000
 88.933	 0.268	7	0	0	 0.000
 89.201	 2.602	0	0	0	 0.000
 91.803	 0.267	3	2	0	 2147483.647
 92.070	 0.268	3	0	0	 0.000
 92.338	 0.267	3	0	0	 0.000
 92.605	 0.268	3	0	0	 0.000
 92.873	 1.712	0	0	0	 0.000
 94.585	 3.406	10	0	0	 0.000
 97.991	 3.050	0	0	0	 0.000
 101.041	 0.133	2	0	0	 0.000
 101.174	 0.134	2	0	0	 0.000
 101.308	 0.134	2	0	0	 0.000
 101.442	 0.154	2	0	0	 0.000
 101.596	 0.133	2	0	0	 0.000
 101.729	 0.134	2	0	0	 0.000
 101.863	 0.134	2	0	0	 0.000
 101.997	 0.134	2	0	0	 0.000
 102.131	 0.133	2	0	0	 0.000
 102.264	 0.134	2	0	0	 0.000
 102.398	 0.134	2	0	0	 0.000
 102.532	 0.134	2	0	0	 0.000
 102.666	 1.445	0	0	0	 0.000
 104.111	 3.049	0	0	0	 0.000
 107.160	 3.070	0	0	0	 0.000
 110.230	 3.050	0	0	0	 0.000
 113.280	 0.268	7	0	0	 0.000
 113.548	 0.287	7	0	0	 0.000
 113.835	 0.269	7	0	0	 0.000
 114.104	 0.267	7	0	0	 0.000
 114.371	 1.358	0	0	0	 0.000
 115.729	 3.405	0	0	0	 0.000
 119.134	 3.049	0	0	0	 0.000
 122.183	 2.047	6	4	0	 2147483.647
 124.230	 0.756	0	0	0	 0.000
 124.986	 2.027	10	0	0	 0.000
 127.013	 1.357	0	0	0	 0.000
 128.370	 0.154	2	0	0	 0.000
 128.524	 0.134	2	0	0	 0.000
 128.658	 0.134	2	0	0	 0.000
 128.792	 0.133	2	0	0	 0.000
 128.925	 0.134	2	0	0	 0.000
 129.059	 0.134	2	0	0	 0.000
 129.193	 0.134	2	0	0	 0.000
 129.327	 0.133	2	0	0	 0.000
 129.460	 0.134	2	0	0	 0.000
 129.594	 0.154	2	0	0	 0.000
 129.748	 0.134	2	0	0	 0.000
 129.882	 0.134	2	0	0	 0.000
 130.016	 1.291	0	0	0	 0.000
 131.307	 2.027	8	0	0	 0.000
 133.334	 1.645	0	0	0	 0.000
 134.979	 2.448	0	0	0	 0.000
 137.427	 0.268	9	0	0	 0.000
 137.695	 0.267	9	0	0	 0.000
 137.962	 0.268	9	0	0	 0.000
 138.230	 0.288	9	0	0	 0.000
 138.518	 2.581	0	0	0	 0.000
 141.099	 0.268	7	0	0	 0.000
 141.367	 0.267	7	0	0	 0.000
 141.634	 0.268	7	0	0	 0.000
 141.902	 0.288	7	0	0	 0.000
 142.190	 1.692	0	0	0	 0.000
 143.882	 0.267	7	0	0	 0.000
 144.149	 0.288	7	0	0	 0.000
 144.437	 0.267	7	0	0	 0.000
 144.704	 0.268	7	0	0	 0.000
 144.972	 1.692	0	0	0	 0.000
 146.664	 0.134	2	0	0	 0.000
 146.798	 0.154	2	0	0	 0.000
 146.952	 0.133	2	0	0	 0.000
 147.085	 0.134	2	0	0	 0.000
 147.219	 0.134	2	0	0	 0.000
 147.353	 0.134	2	0	0	 0.000
 147.487	 0.134	2	0	0	 0.000
 147.621	 0.133	2	0	0	 0.000
 147.754	 0.134	2	0	0	 0.000
 147.888	 0.134	2	0	0	 0.000
 148.022	 0.154	2	0	0	 0.000
 148.176	 0.133	2	0	0	 0.000
 148.309	 1.426	0	0	0	 0.000
 149.735	 0.268	3	2	0	 2147483.647
 150.003	 0.267	3	0	0	 0.000
 150.270	 0.288	3	0	0	 0.000
 150.558	 0.267	3	0	0	 0.000
 150.825	 2.314	3	0	0	 0.000
 153.139	 2.027	10	0	0	 0.000
 155.166	 0.756	0	0	0	 0.000
 155.922	 0.134	1	0	0	 0.000
 156.056	 0.133	1	0	0	 0.000
 156.189	 0.134	1	0	0	 0.000
 156.323	 0.134	1	0	0	 0.000
 156.457	 0.134	1	0	0	 0.000
 156.591	 0.154	1	0	0	 0.000
 156.745	 0.133	1	0	0	 0.000
 156.878	 0.134	1	0	0	 0.000
 157.012	 0.134	1	0	0	 0.000
 157.146	 0.134	1	0	0	 0.000
 157.280	 0.133	1	0	0	 0.000
 157.413	 0.134	1	0	0	 0.000
 157.547	 2.047	0	0	0	 0.000
 159.594	 2.046	8	0	0	 0.000
 161.640	 1.626	0	0	0	 0.000
 163.266	 0.133	2	0	0	 0.000
 163.399	 0.134	2	0	0	 0.000
 163.533	 0.134	2	0	0	 0.000
 163.667	 0.134	2	0	0	 0.000
 163.801	 0.133	2	0	0	 0.000
 163.934	 0.154	2	0	0	 0.000
 164.088	 0.134	2	0	0	 0.000
 164.222	 0.134	2	0	0	 0.000
 164.356	 0.134	2	0	0	 0.000
 164.490	 0.133	2	0	0	 0.000
 164.623	 0.134	2	0	0	 0.000
 164.757	 0.134	2	0	0	 0.000
 164.891	 1.425	0	0	0	 0.000
 166.316	 0.288	9	0	0	 0.000
 166.604	 0.268	9	0	0	 0.000
 166.872	 0.267	9	0	0	 0.000
 167.139	 0.268	9	0	0	 0.000
 167.407	 1.980	0	0	0	 0.000
 169.387	 0.267	3	2	0	 2147483.647
 169.654	 0.268	3	0	0	 0.000
 169.922	 0.287	3	0	0	 0.000
 170.209	 0.268	3	0	0	 0.000
 170.477	 1.491	0	0	0	 0.000
 171.968	 2.047	8	0	0	 0.000
 174.015	 1.358	0	0	0	 0.000
 175.373	 0.267	9	0	0	 0.000
 175.640	 0.268	9	0	0	 0.000
 175.908	 0.267	9	0	0	 0.000
 176.175	 0.288	9	0	0	 0.000
 176.463	 1.692	0	0	0	 0.000
 178.155	 2.047	4	2	0	 2147483.647
 180.202	 1.357	0	0	0	 0.000
 181.559	 0.268	7	0	0	 0.000
 181.827	 0.267	7	0	0	 0.000
 182.094	 0.288	7	0	0	 0.000
 182.382	 0.268	7	0	0	 0.000
 182.650	 1.291	0	0	0	 0.000
 183.941	 0.134	1	0	0	 0.000
 184.075	 0.134	1	0	0	 0.000
 184.209	 0.134	1	0	0	 0.000
 184.343	 0.134	1	0	0	 0.000
 184.477	 0.133	1	0	0	 0.000
 184.610	 0.134	1	0	0	 0.000
 184.744	 0.154	1	0	0	 0.000
 184.898	 0.134	1	0	0	 0.000
 185.032	 0.134	1	0	0	 0.000
 185.166	 0.133	1	0	0	 0.000
 185.299	 0.134	1	0	0	 0.000
 185.433	 0.134	1	0	0	 0.000
 185.567	 1.424	0	0	0	 0.000
 186.991	 3.070	0	0	0	 0.000
 190.061	 3.405	0	0	0	 0.000
 193.466	 2.448	0	0	0	 0.000
 195.914	 0.134	1	0	0	 0.000
 196.048	 0.133	1	0	0	 0.000
 196.181	 0.134	1	0	0	 0.000
 196.315	 0.134	1	0	0	 0.000
 196.449	 0.134	1	0	0	 0.000
 196.583	 0.133	1	0	0	 0.000
 196.716	 0.134	1	0	0	 0.000
 196.850	 0.134	1	0	0	 0.000
 196.984	 0.154	1	0	0	 0.000
 197.138	 0.133	1	0	0	 0.000
 197.271	 0.134	1	0	0	 0.000
 197.405	 0.134	1	0	0	 0.000
 197.539	 1.759	0	0	0	 0.000
 199.298	 0.288	7	0	0	 0.000
 199.586	 0.267	7	0	0	 0.000
 199.853	 0.268	7	0	0	 0.000
 200.121	 0.267	7	0	0	 0.000
 200.388	 2.315	0	0	0	 0.000
 202.703	 0.268	9	0	0	 0.000
 202.971	 0.288	9	0	0	 0.000
 203.259	 0.267	9	0	0	 0.000
 203.526	 0.268	9	0	0	 0.000
 203.794	 1.979	0	0	0	 0.000
 205.773	 2.027	8	0	0	 0.000
 207.800	 1.023	0	0	0	 0.000
 208.823	 2.047	8	0	0	 0.000
 210.870	 0.736	0	0	0	 0.000
 211.606	 0.154	2	0	0	 0.000
 211.760	 0.133	2	0	0	 0.000
 211.893	 0.134	2	0	0	 0.000
 212.027	 0.134	2	0	0	 0.000
 212.161	 0.134	2	0	0	 0.000
 212.295	 0.133	2	0	0	 0.000
 212.428	 0.134	2	0	0	 0.000
 212.562	 0.134	2	0	0	 0.000
 212.696	 0.134	2	0	0	 0.000
 212.830	 0.154	2	0	0	 0.000
 212.984	 0.133	2	0	0	 0.000
 213.117	 0.134	2	0	0	 0.000
 213.251	 1.759	0	0	0	 0.000
 215.010	 0.134	2	0	0	 0.000
 215.144	 0.134	2	0	0	 0.000
 215.278	 0.154	2	0	0	 0.000
 215.432	 0.133	2	0	0	 0.000
 215.565	 0.134	2	0	0	 0.000
 215.699	 0.134	2	0	0	 0.000
 215.833	 0.134	2	0	0	 0.000
 215.967	 0.133	2	0	0	 0.000
 216.100	 0.134	2	0	0	 0.000
 216.234	 0.134	2	0	0	 0.000
 216.368	 0.134	2	0	0	 0.000
 216.502	 0.153	2	0	0	 0.000
 216.655	 1.425	0	0	0	 0.000
 218.080	 0.134	2	0	0	 0.000
 218.214	 0.134	2	0	0	 0.000
 218.348	 0.133	2	0	0	 0.000
 218.481	 0.134	2	0	0	 0.000
 218.615	 0.134	2	0	0	 0.000
 218.749	 0.134	2	0	0	 0.000
 218.883	 0.134	2	0	0	 0.000
 219.017	 0.154	2	0	0	 0.000
 219.171	 0.134	2	0	0	 0.000
 219.305	 0.134	2	0	0	 0.000
 219.439	 0.134	2	0	0	 0.000
 219.573	 0.133	2	0	0	 0.000
 219.706	 1.157	0	0	0	 0.000
 220.863	 2.047	6	4	0	 2147483.647
 222.910	 1.003	0	0	0	 0.000
 223.913	 2.047	6	4	0	 2147483.647
 225.960	 1.023	0	0	0	 0.000
 226.983	 0.134	1	0	0	 0.000
 227.117	 0.134	1	0	0	 0.000
 227.251	 0.134	1	0	0	 0.000
 227.385	 0.133	1	0	0	 0.000
 227.518	 0.154	1	0	0	 0.000
 227.672	 0.134	1	0	0	 0.000
 227.806	 0.134	1	0	0	 0.000
 227.940	 0.134	1	0	0	 0.000
 228.074	 0.133	1	0	0	 0.000
 228.207	 0.134	1	0	0	 0.000
 228.341	 0.134	1	0	0	 0.000
 228.475	 0.134	1	0	0	 0.000
 228.609	 1.157	0	0	0	 0.000
 229.766	 2.046	8	0	0	 0.000
 231.812	 1.358	0	0	0	 0.000
 233.170	 0.134	1	0	0	 0.000
 233.304	 0.134	1	0	0	 0.000
 233.438	 0.133	1	0	0	 0.000
 233.571	 0.134	1	0	0	 0.000
 233.705	 0.154	1	0	0	 0.000
 233.859	 0.134	1	0	0	 0.000
 233.993	 0.134	1	0	0	 0.000
 234.127	 0.133	1	0	0	 0.000
 234.260	 0.134	1	0	0	 0.000
 234.394	 0.134	1	0	0	 0.000
 234.528	 0.134	1	0	0	 0.000
 234.662	 0.133	1	0	0	 0.000
 234.795	 1.445	0	0	0	 0.000
 236.240	 0.269	5	4	0	 2147483.647
 236.509	 0.267	5	0	0	 0.000
 236.776	 0.268	5	0	0	 0.000
 237.044	 0.267	5	0	0	 0.000
 237.311	 1.291	0	0	0	 0.000
 238.602	 0.288	3	2	0	 2147483.647
 238.890	 0.267	3	0	0	 0.000
 239.157	 0.268	3	0	0	 0.000
 239.425	 0.267	3	0	0	 0.000
 239.692	 2.314	0	0	0	 0.000
 242.006	 2.047	8	0	0	 0.000
 244.053	 0.756	0	0	0	 0.000
 244.809	 2.026	10	0	0	 0.000
 246.835	 1.358	0	0	0	 0.000
 248.193	 3.070	0	0	0	 0.000
 251.263	 3.051	0	0	0	 0.000
 254.314	 0.288	9	0	0	 0.000
 254.602	 0.267	9	0	0	 0.000
 254.869	 0.268	9	0	0	 0.000
 255.137	 0.267	9	0	0	 0.000
 255.404	 1.358	0	0	0	 0.000
 256.762	 0.134	1	0	0	 0.000
 256.896	 0.154	1	0	0	 0.000
 257.050	 0.133	1	0	0	 0.000
 257.183	 0.134	1	0	0	 0.000
 257.317	 0.134	1	0	0	 0.000
 257.451	 0.134	1	0	0	 0.000
 257.585	 0.134	1	0	0	 0.000
 257.719	 0.133	1	0	0	 0.000
 257.852	 0.134	1	0	0	 0.000
 257.986	 0.134	1	0	0	 0.000
 258.120	 0.154	1	0	0	 0.000
 258.274	 0.133	1	0	0	 0.000
 258.407	 1.759	0	0	0	 0.000
 260.166	 0.268	7	0	0	 0.000
 260.434	 0.288	7	0	0	 0.000
 260.722	 0.267	7	0	0	 0.000
 260.989	 0.268	7	0	0	 0.000
 261.257	 1.291	0	0	0	 0.000
 262.548	 2.046	4	2	0	 2147483.647
 264.594	 0.736	0	0	0	 0.000
 265.330	 2.047	4	2	0	 2147483.647
 267.377	 1.023	0	0	0	 0.000
 268.400	 2.026	8	0	0	 0.000
 270.426	 1.647	0	0	0	 0.000
 272.073	 0.134	2	0	0	 0.000
 272.207	 0.133	2	0	0	 0.000
 272.340	 0.134	2	0	0	 0.000
 272.474	 0.134	2	0	0	 0.000
 272.608	 0.134	2	0	0	 0.000
 272.742	 0.133	2	0	0	 0.000
 272.875	 0.154	2	0	0	 0.000
 273.029	 0.134	2	0	0	 0.000
 273.163	 0.134	2	0	0	 0.000
 273.297	 0.134	2	0	0	 0.000
 273.431	 0.133	2	0	0	 0.000
 273.564	 0.134	2	0	0	 0.000
 273.698	 1.157	0	0	0	 0.000
 274.855	 0.134	1	0	0	 0.000
 274.989	 0.134	1	0	0	 0.000
 275.123	 0.133	1	0	0	 0.000
 275.256	 0.154	1	0	0	 0.000
 275.410	 0.134	1	0	0	 0.000
 275.544	 0.134	1	0	0	 0.000
 275.678	 0.134	1	0	0	 0.000
 275.812	 0.133	1	0	0	 0.000
 275.945	 0.134	1	0	0	 0.000
 276.079	 0.134	1	0	0	 0.000
 276.213	 0.134	1	0	0	 0.000
 276.347	 0.133	1	0	0	 0.000
 276.480	 1.445	0	0	0	 0.000
 277.925	 0.134	1	0	0	 0.000
 278.059	 0.134	1	0	0	 0.000
 278.193	 0.133	1	0	0	 0.000
 278.326	 0.134	1	0	0	 0.000
 278.460	 0.134	1	0	0	 0.000
 278.594	 0.134	1	0	0	 0.000
 278.728	 0.133	1	0	0	 0.000
 278.861	 0.134	1	0	0	 0.000
 278.995	 0.154	1	0	0	 0.000
 279.149	 0.134	1	0	0	 0.000
 279.283	 0.134	1	0	0	 0.000
 279.417	 0.133	1	0	0	 0.000
 279.550	 1.425	0	0	0	 0.000
 280.975	 2.782	0	0	0	 0.000
 283.757	 0.288	5	4	0	 2147483.647
 284.045	 0.268	5	0	0	 0.000
 284.313	 0.267	5	0	0	 0.000
 284.580	 0.268	5	0	0	 0.000
 284.848	 1.290	0	0	0	 0.000
 286.138	 0.134	2	0	0	 0.000
 286.272	 0.154	2	0	0	 0.000
 286.426	 0.134	2	0	0	 0.000
 286.560	 0.134	2	0	0	 0.000
 286.694	 0.133	2	0	0	 0.000
 286.827	 0.134	2	0	0	 0.000
 286.961	 0.134	2	0	0	 0.000
 287.095	 0.134	2	0	0	 0.000
 287.229	 0.133	2	0	0	 0.000
 287.362	 0.134	2	0	0	 0.000
 287.496	 0.154	2	0	0	 0.000
 287.650	 0.134	2	0	0	 0.000
 287.784	 1.760	0	0	0	 0.000
 289.544	 2.782	0	0	0	 0.000
 292.326	 2.047	10	0	0	 0.000
 294.373	 1.625	0	0	0	 0.000
 295.998	 0.288	9	0	0	 0.000
 296.286	 0.267	9	0	0	 0.000
 296.553	 0.268	9	0	0	 0.000
 296.821	 0.267	9	0	0	 0.000
 297.088	 1.291	0	0	0	 0.000
 298.379	 0.288	5	0	0	 0.000
 298.667	 0.267	5	0	0	 0.000
 298.934	 0.268	5	0	0	 0.000
 299.202	 0.267	5	0	0	 0.000
 299.469	 1.358	5	4	0	 2147483.647
 300.827	 2.047	10	0	0	 0.000
 302.874	 1.625	0	0	0	 0.000
 304.499	 2.048	10	0	0	 0.000
 306.547	 6.528	0	0	0	 0.000
