onset	duration	trial_type	expected_response	given_response	response_time
 0.000	 4.074	Filler	0	0	 0.000
 4.074	 0.669	ISI	0	0	 0.000
 4.743	 0.355	croix	0	0	 0.000
 5.098	 0.669	noir	0	0	 0.000
 5.767	 0.689	pseudocomplex	1	0	 2147483.647
 6.456	 0.802	ISI	0	0	 0.000
 7.258	 0.355	croix	0	0	 0.000
 7.613	 0.668	noir	0	0	 0.000
 8.281	 0.689	H	0	0	 0.000
 8.970	 0.890	ISI	0	0	 0.000
 9.860	 0.334	croix	0	0	 0.000
 10.194	 0.669	noir	0	0	 0.000
 10.863	 0.689	complex	1	0	 2147483.647
 11.552	 0.535	ISI	0	0	 0.000
 12.087	 0.355	croix	0	0	 0.000
 12.442	 0.668	noir	0	0	 0.000
 13.110	 0.689	complex	1	0	 2147483.647
 13.799	 0.803	ISI	0	0	 0.000
 14.602	 0.354	croix	0	0	 0.000
 14.956	 0.669	noir	0	0	 0.000
 15.625	 0.689	H	0	0	 0.000
 16.314	 0.602	ISI	0	0	 0.000
 16.916	 0.355	croix	0	0	 0.000
 17.271	 0.668	noir	0	0	 0.000
 17.939	 0.689	complex	1	0	 2147483.647
 18.628	 0.602	ISI	0	0	 0.000
 19.230	 0.356	croix	0	0	 0.000
 19.586	 0.669	noir	0	0	 0.000
 20.255	 0.689	pseudocomplex	1	0	 2147483.647
 20.944	 0.802	ISI	0	0	 0.000
 21.746	 0.355	croix	0	0	 0.000
 22.101	 0.668	noir	0	0	 0.000
 22.769	 0.689	pseudocomplex	1	0	 2147483.647
 23.458	 0.535	ISI	0	0	 0.000
 23.993	 0.335	croix	0	0	 0.000
 24.328	 0.689	noir	0	0	 0.000
 25.017	 0.689	H	0	0	 0.000
 25.706	 0.602	ISI	0	0	 0.000
 26.308	 0.334	croix	0	0	 0.000
 26.642	 0.689	noir	0	0	 0.000
 27.331	 0.669	pseudocomplex	1	0	 2147483.647
 28.000	 0.756	ISI	0	0	 0.000
 28.756	 0.334	croix	0	0	 0.000
 29.090	 0.689	noir	0	0	 0.000
 29.779	 0.669	pseudocomplex	1	0	 2147483.647
 30.448	 0.555	ISI	0	0	 0.000
 31.003	 0.334	croix	0	0	 0.000
 31.337	 0.689	noir	0	0	 0.000
 32.026	 0.669	H	0	0	 0.000
 32.695	 0.756	ISI	0	0	 0.000
 33.451	 0.334	croix	0	0	 0.000
 33.785	 0.689	noir	0	0	 0.000
 34.474	 0.669	pseudocomplex	1	0	 2147483.647
 35.143	 0.622	ISI	0	0	 0.000
 35.765	 0.334	croix	0	0	 0.000
 36.099	 0.690	noir	0	0	 0.000
 36.789	 0.669	pseudocomplex	1	0	 2147483.647
 37.458	 0.689	ISI	0	0	 0.000
 38.147	 0.335	croix	0	0	 0.000
 38.482	 0.688	noir	0	0	 0.000
 39.170	 0.669	complex	1	0	 2147483.647
 39.839	 0.622	ISI	0	0	 0.000
 40.461	 0.335	croix	0	0	 0.000
 40.796	 0.669	noir	0	0	 0.000
 41.465	 0.688	H	0	0	 0.000
 42.153	 0.602	ISI	0	0	 0.000
 42.755	 0.355	croix	0	0	 0.000
 43.110	 0.669	noir	0	0	 0.000
 43.779	 0.689	complex	1	0	 2147483.647
 44.468	 0.668	ISI	0	0	 0.000
 45.136	 0.355	croix	0	0	 0.000
 45.491	 0.669	noir	0	0	 0.000
 46.160	 0.689	pseudocomplex	1	0	 2147483.647
 46.849	 0.535	ISI	0	0	 0.000
 47.384	 0.354	croix	0	0	 0.000
 47.738	 0.669	noir	0	0	 0.000
 48.407	 0.689	H	0	0	 0.000
 49.096	 0.535	ISI	0	0	 0.000
 49.631	 0.334	croix	0	0	 0.000
 49.965	 0.689	noir	0	0	 0.000
 50.654	 0.669	pseudocomplex	1	0	 2147483.647
 51.323	 0.890	ISI	0	0	 0.000
 52.213	 0.334	croix	0	0	 0.000
 52.547	 0.689	noir	0	0	 0.000
 53.236	 0.689	pseudocomplex	1	0	 2147483.647
 53.925	 0.670	ISI	0	0	 0.000
 54.595	 0.334	croix	0	0	 0.000
 54.929	 0.689	noir	0	0	 0.000
 55.618	 0.689	complex	1	0	 2147483.647
 56.307	 0.602	ISI	0	0	 0.000
 56.909	 0.334	croix	0	0	 0.000
 57.243	 0.689	noir	0	0	 0.000
 57.932	 0.669	complex	1	0	 2147483.647
 58.601	 0.555	ISI	0	0	 0.000
 59.156	 0.335	croix	0	0	 0.000
 59.491	 0.689	noir	0	0	 0.000
 60.180	 0.669	H	0	0	 0.000
 60.849	 0.555	ISI	0	0	 0.000
 61.404	 0.334	croix	0	0	 0.000
 61.738	 0.689	noir	0	0	 0.000
 62.427	 0.669	complex	1	0	 2147483.647
 63.096	 0.689	ISI	0	0	 0.000
 63.785	 0.334	croix	0	0	 0.000
 64.119	 0.669	noir	0	0	 0.000
 64.788	 0.689	pseudocomplex	1	0	 2147483.647
 65.477	 0.622	ISI	0	0	 0.000
 66.099	 0.334	croix	0	0	 0.000
 66.433	 0.669	noir	0	0	 0.000
 67.102	 0.689	pseudocomplex	1	0	 2147483.647
 67.791	 0.602	ISI	0	0	 0.000
 68.393	 0.355	croix	0	0	 0.000
 68.748	 0.668	noir	0	0	 0.000
 69.416	 0.689	H	0	0	 0.000
 70.105	 0.669	ISI	0	0	 0.000
 70.774	 0.355	croix	0	0	 0.000
 71.129	 0.669	noir	0	0	 0.000
 71.798	 0.689	complex	1	0	 2147483.647
 72.487	 0.669	ISI	0	0	 0.000
 73.156	 0.355	croix	0	0	 0.000
 73.511	 0.669	noir	0	0	 0.000
 74.180	 0.688	complex	1	0	 2147483.647
 74.868	 1.559	ISI	0	0	 0.000
 76.427	 0.334	croix	0	0	 0.000
 76.761	 0.689	noir	0	0	 0.000
 77.450	 0.669	pseudocomplex	1	0	 2147483.647
 78.119	 0.689	ISI	0	0	 0.000
 78.808	 0.334	croix	0	0	 0.000
 79.142	 0.689	noir	0	0	 0.000
 79.831	 0.669	H	0	0	 0.000
 80.500	 0.555	ISI	0	0	 0.000
 81.055	 0.335	croix	0	0	 0.000
 81.390	 0.689	noir	0	0	 0.000
 82.079	 0.668	pseudocomplex	1	0	 2147483.647
 82.747	 0.556	ISI	0	0	 0.000
 83.303	 0.334	croix	0	0	 0.000
 83.637	 0.669	noir	0	0	 0.000
 84.306	 0.689	pseudocomplex	1	0	 2147483.647
 84.995	 0.689	ISI	0	0	 0.000
 85.684	 0.334	croix	0	0	 0.000
 86.018	 0.669	noir	0	0	 0.000
 86.687	 0.689	H	0	0	 0.000
 87.376	 0.602	ISI	0	0	 0.000
 87.978	 0.354	croix	0	0	 0.000
 88.332	 0.669	noir	0	0	 0.000
 89.001	 0.690	complex	1	0	 2147483.647
 89.691	 0.602	ISI	0	0	 0.000
 90.293	 0.354	croix	0	0	 0.000
 90.647	 0.669	noir	0	0	 0.000
 91.316	 0.689	pseudocomplex	1	0	 2147483.647
 92.005	 0.535	ISI	0	0	 0.000
 92.540	 0.335	croix	0	0	 0.000
 92.875	 0.688	noir	0	0	 0.000
 93.563	 0.689	pseudocomplex	1	0	 2147483.647
 94.252	 0.669	ISI	0	0	 0.000
 94.921	 0.335	croix	0	0	 0.000
 95.256	 0.689	noir	0	0	 0.000
 95.945	 0.668	complex	1	0	 2147483.647
 96.613	 0.756	ISI	0	0	 0.000
 97.369	 0.335	croix	0	0	 0.000
 97.704	 0.689	noir	0	0	 0.000
 98.393	 0.668	H	0	0	 0.000
 99.061	 0.756	ISI	0	0	 0.000
 99.817	 0.335	croix	0	0	 0.000
 100.152	 0.688	noir	0	0	 0.000
 100.840	 0.669	complex	1	0	 2147483.647
 101.509	 0.622	ISI	0	0	 0.000
 102.131	 0.335	croix	0	0	 0.000
 102.466	 0.689	noir	0	0	 0.000
 103.155	 0.668	complex	1	0	 2147483.647
 103.823	 0.623	ISI	0	0	 0.000
 104.446	 0.334	croix	0	0	 0.000
 104.780	 0.689	noir	0	0	 0.000
 105.469	 0.669	complex	1	0	 2147483.647
 106.138	 0.823	ISI	0	0	 0.000
 106.961	 0.335	croix	0	0	 0.000
 107.296	 0.689	noir	0	0	 0.000
 107.985	 0.668	H	0	0	 0.000
 108.653	 0.623	ISI	0	0	 0.000
 109.276	 0.334	croix	0	0	 0.000
 109.610	 0.689	noir	0	0	 0.000
 110.299	 0.669	complex	1	0	 2147483.647
 110.968	 0.822	ISI	0	0	 0.000
 111.790	 0.335	croix	0	0	 0.000
 112.125	 0.689	noir	0	0	 0.000
 112.814	 0.669	complex	1	0	 2147483.647
 113.483	 0.555	ISI	0	0	 0.000
 114.038	 0.334	croix	0	0	 0.000
 114.372	 0.689	noir	0	0	 0.000
 115.061	 0.669	pseudocomplex	1	0	 2147483.647
 115.730	 0.622	ISI	0	0	 0.000
 116.352	 0.334	croix	0	0	 0.000
 116.686	 0.669	noir	0	0	 0.000
 117.355	 0.689	H	0	0	 0.000
 118.044	 0.756	ISI	0	0	 0.000
 118.800	 0.334	croix	0	0	 0.000
 119.134	 0.669	noir	0	0	 0.000
 119.803	 0.689	pseudocomplex	1	0	 2147483.647
 120.492	 0.756	ISI	0	0	 0.000
 121.248	 0.334	croix	0	0	 0.000
 121.582	 0.669	noir	0	0	 0.000
 122.251	 0.689	pseudocomplex	1	0	 2147483.647
 122.940	 0.602	ISI	0	0	 0.000
 123.542	 0.354	croix	0	0	 0.000
 123.896	 0.670	noir	0	0	 0.000
 124.566	 0.689	H	0	0	 0.000
 125.255	 0.602	ISI	0	0	 0.000
 125.857	 0.355	croix	0	0	 0.000
 126.212	 0.668	noir	0	0	 0.000
 126.880	 0.689	pseudocomplex	1	0	 2147483.647
 127.569	 0.602	ISI	0	0	 0.000
 128.171	 0.355	croix	0	0	 0.000
 128.526	 0.669	noir	0	0	 0.000
 129.195	 0.688	pseudocomplex	1	0	 2147483.647
 129.883	 0.602	ISI	0	0	 0.000
 130.485	 0.335	croix	0	0	 0.000
 130.820	 0.689	noir	0	0	 0.000
 131.509	 0.689	pseudocomplex	1	0	 2147483.647
 132.198	 0.869	ISI	0	0	 0.000
 133.067	 0.355	croix	0	0	 0.000
 133.422	 0.668	noir	0	0	 0.000
 134.090	 0.689	H	0	0	 0.000
 134.779	 0.937	ISI	0	0	 0.000
 135.716	 0.354	croix	0	0	 0.000
 136.070	 0.669	noir	0	0	 0.000
 136.739	 0.689	pseudocomplex	1	0	 2147483.647
 137.428	 0.602	ISI	0	0	 0.000
 138.030	 0.354	croix	0	0	 0.000
 138.384	 0.669	noir	0	0	 0.000
 139.053	 0.689	complex	1	0	 2147483.647
 139.742	 0.535	ISI	0	0	 0.000
 140.277	 0.335	croix	0	0	 0.000
 140.612	 0.689	noir	0	0	 0.000
 141.301	 0.690	pseudocomplex	1	0	 2147483.647
 141.991	 0.601	ISI	0	0	 0.000
 142.592	 0.335	croix	0	0	 0.000
 142.927	 0.689	noir	0	0	 0.000
 143.616	 0.669	complex	1	0	 2147483.647
 144.285	 0.755	ISI	0	0	 0.000
 145.040	 0.335	croix	0	0	 0.000
 145.375	 0.689	noir	0	0	 0.000
 146.064	 0.669	pseudocomplex	1	0	 2147483.647
 146.733	 0.555	ISI	0	0	 0.000
 147.288	 0.334	croix	0	0	 0.000
 147.622	 0.689	noir	0	0	 0.000
 148.311	 0.669	complex	1	0	 2147483.647
 148.980	 0.756	ISI	0	0	 0.000
 149.736	 0.334	croix	0	0	 0.000
 150.070	 0.689	noir	0	0	 0.000
 150.759	 0.669	H	0	0	 0.000
 151.428	 0.555	ISI	0	0	 0.000
 151.983	 0.334	croix	0	0	 0.000
 152.317	 0.689	noir	0	0	 0.000
 153.006	 0.669	complex	1	0	 2147483.647
 153.675	 0.555	ISI	0	0	 0.000
 154.230	 0.335	croix	0	0	 0.000
 154.565	 0.668	noir	0	0	 0.000
 155.233	 0.689	complex	1	0	 2147483.647
 155.922	 0.535	ISI	0	0	 0.000
 156.457	 0.355	croix	0	0	 0.000
 156.812	 0.669	noir	0	0	 0.000
 157.481	 0.689	complex	1	0	 2147483.647
 158.170	 0.802	ISI	0	0	 0.000
 158.972	 0.356	croix	0	0	 0.000
 159.328	 0.669	noir	0	0	 0.000
 159.997	 0.689	complex	1	0	 2147483.647
 160.686	 0.956	ISI	0	0	 0.000
 161.642	 0.334	croix	0	0	 0.000
 161.976	 0.669	noir	0	0	 0.000
 162.645	 0.689	pseudocomplex	1	0	 2147483.647
 163.334	 0.756	ISI	0	0	 0.000
 164.090	 0.334	croix	0	0	 0.000
 164.424	 0.669	noir	0	0	 0.000
 165.093	 0.689	complex	1	0	 2147483.647
 165.782	 0.689	ISI	0	0	 0.000
 166.471	 0.334	croix	0	0	 0.000
 166.805	 0.669	noir	0	0	 0.000
 167.474	 0.689	H	0	0	 0.000
 168.163	 0.535	ISI	0	0	 0.000
 168.698	 0.355	croix	0	0	 0.000
 169.053	 0.669	noir	0	0	 0.000
 169.722	 0.689	pseudocomplex	1	0	 2147483.647
 170.411	 1.157	ISI	0	0	 0.000
 171.568	 0.334	croix	0	0	 0.000
 171.902	 0.689	noir	0	0	 0.000
 172.591	 0.669	pseudocomplex	1	0	 2147483.647
 173.260	 0.689	ISI	0	0	 0.000
 173.949	 0.334	croix	0	0	 0.000
 174.283	 0.669	noir	0	0	 0.000
 174.952	 0.689	complex	1	0	 2147483.647
 175.641	 0.756	ISI	0	0	 0.000
 176.397	 0.335	croix	0	0	 0.000
 176.732	 0.669	noir	0	0	 0.000
 177.401	 0.689	complex	1	0	 2147483.647
 178.090	 0.622	ISI	0	0	 0.000
 178.712	 0.334	croix	0	0	 0.000
 179.046	 0.669	noir	0	0	 0.000
 179.715	 0.689	H	0	0	 0.000
 180.404	 0.823	ISI	0	0	 0.000
 181.227	 0.334	croix	0	0	 0.000
 181.561	 0.669	noir	0	0	 0.000
 182.230	 0.689	complex	1	0	 2147483.647
 182.919	 0.889	ISI	0	0	 0.000
 183.808	 0.335	croix	0	0	 0.000
 184.143	 0.689	noir	0	0	 0.000
 184.832	 0.668	pseudocomplex	1	0	 2147483.647
 185.500	 0.689	ISI	0	0	 0.000
 186.189	 0.335	croix	0	0	 0.000
 186.524	 0.669	noir	0	0	 0.000
 187.193	 0.689	complex	1	0	 2147483.647
 187.882	 0.822	ISI	0	0	 0.000
 188.704	 0.335	croix	0	0	 0.000
 189.039	 0.689	noir	0	0	 0.000
 189.728	 0.668	H	0	0	 0.000
 190.396	 0.689	ISI	0	0	 0.000
 191.085	 0.335	croix	0	0	 0.000
 191.420	 0.668	noir	0	0	 0.000
 192.088	 0.689	pseudocomplex	1	0	 2147483.647
 192.777	 0.689	ISI	0	0	 0.000
 193.466	 0.335	croix	0	0	 0.000
 193.801	 0.670	noir	0	0	 0.000
 194.471	 0.689	pseudocomplex	1	0	 2147483.647
 195.160	 0.601	ISI	0	0	 0.000
 195.761	 0.355	croix	0	0	 0.000
 196.116	 0.669	noir	0	0	 0.000
 196.785	 0.689	complex	1	0	 2147483.647
 197.474	 0.535	ISI	0	0	 0.000
 198.009	 0.354	croix	0	0	 0.000
 198.363	 0.669	noir	0	0	 0.000
 199.032	 0.689	complex	1	0	 2147483.647
 199.721	 0.602	ISI	0	0	 0.000
 200.323	 0.334	croix	0	0	 0.000
 200.657	 0.689	noir	0	0	 0.000
 201.346	 0.689	H	0	0	 0.000
 202.035	 0.535	ISI	0	0	 0.000
 202.570	 0.335	croix	0	0	 0.000
 202.905	 0.689	noir	0	0	 0.000
 203.594	 0.668	complex	1	0	 2147483.647
 204.262	 0.756	ISI	0	0	 0.000
 205.018	 0.335	croix	0	0	 0.000
 205.353	 0.689	noir	0	0	 0.000
 206.042	 0.668	complex	1	0	 2147483.647
 206.710	 0.622	ISI	0	0	 0.000
 207.332	 0.335	croix	0	0	 0.000
 207.667	 0.689	noir	0	0	 0.000
 208.356	 0.669	complex	1	0	 2147483.647
 209.025	 0.755	ISI	0	0	 0.000
 209.780	 0.335	croix	0	0	 0.000
 210.115	 0.689	noir	0	0	 0.000
 210.804	 0.669	H	0	0	 0.000
 211.473	 0.556	ISI	0	0	 0.000
 212.029	 0.334	croix	0	0	 0.000
 212.363	 0.689	noir	0	0	 0.000
 213.052	 0.669	pseudocomplex	1	0	 2147483.647
 213.721	 0.689	ISI	0	0	 0.000
 214.410	 0.334	croix	0	0	 0.000
 214.744	 0.689	noir	0	0	 0.000
 215.433	 0.669	pseudocomplex	1	0	 2147483.647
 216.102	 0.823	ISI	0	0	 0.000
 216.925	 0.334	croix	0	0	 0.000
 217.259	 0.689	noir	0	0	 0.000
 217.948	 0.669	pseudocomplex	1	0	 2147483.647
 218.617	 0.822	ISI	0	0	 0.000
 219.439	 0.335	croix	0	0	 0.000
 219.774	 0.689	noir	0	0	 0.000
 220.463	 0.669	complex	1	0	 2147483.647
 221.132	 0.889	ISI	0	0	 0.000
 222.021	 0.335	croix	0	0	 0.000
 222.356	 0.688	noir	0	0	 0.000
 223.044	 0.669	H	0	0	 0.000
 223.713	 0.622	ISI	0	0	 0.000
 224.335	 0.335	croix	0	0	 0.000
 224.670	 0.689	noir	0	0	 0.000
 225.359	 0.668	pseudocomplex	1	0	 2147483.647
 226.027	 0.623	ISI	0	0	 0.000
 226.650	 0.334	croix	0	0	 0.000
 226.984	 0.689	noir	0	0	 0.000
 227.673	 0.669	pseudocomplex	1	0	 2147483.647
 228.342	 0.555	ISI	0	0	 0.000
 228.897	 0.335	croix	0	0	 0.000
 229.232	 0.669	noir	0	0	 0.000
 229.901	 0.689	pseudocomplex	1	0	 2147483.647
 230.590	 1.157	ISI	0	0	 0.000
 231.747	 0.334	croix	0	0	 0.000
 232.081	 0.689	noir	0	0	 0.000
 232.770	 0.669	H	0	0	 0.000
 233.439	 0.689	ISI	0	0	 0.000
 234.128	 0.335	croix	0	0	 0.000
 234.463	 0.688	noir	0	0	 0.000
 235.151	 0.669	pseudocomplex	1	0	 2147483.647
 235.820	 0.957	ISI	0	0	 0.000
 236.777	 0.334	croix	0	0	 0.000
 237.111	 0.689	noir	0	0	 0.000
 237.800	 0.669	pseudocomplex	1	0	 2147483.647
 238.469	 0.689	ISI	0	0	 0.000
 239.158	 0.334	croix	0	0	 0.000
 239.492	 0.689	noir	0	0	 0.000
 240.181	 0.669	pseudocomplex	1	0	 2147483.647
 240.850	 0.689	ISI	0	0	 0.000
 241.539	 0.334	croix	0	0	 0.000
 241.873	 0.689	noir	0	0	 0.000
 242.562	 0.669	H	0	0	 0.000
 243.231	 0.622	ISI	0	0	 0.000
 243.853	 0.334	croix	0	0	 0.000
 244.187	 0.689	noir	0	0	 0.000
 244.876	 0.669	pseudocomplex	1	0	 2147483.647
 245.545	 0.622	ISI	0	0	 0.000
 246.167	 0.335	croix	0	0	 0.000
 246.502	 0.669	noir	0	0	 0.000
 247.171	 0.689	complex	1	0	 2147483.647
 247.860	 0.623	ISI	0	0	 0.000
 248.483	 0.334	croix	0	0	 0.000
 248.817	 0.669	noir	0	0	 0.000
 249.486	 0.689	pseudocomplex	1	0	 2147483.647
 250.175	 0.602	ISI	0	0	 0.000
 250.777	 0.354	croix	0	0	 0.000
 251.131	 0.669	noir	0	0	 0.000
 251.800	 0.689	complex	1	0	 2147483.647
 252.489	 0.602	ISI	0	0	 0.000
 253.091	 0.354	croix	0	0	 0.000
 253.445	 0.669	noir	0	0	 0.000
 254.114	 0.689	H	0	0	 0.000
 254.803	 0.602	ISI	0	0	 0.000
 255.405	 0.334	croix	0	0	 0.000
 255.739	 0.689	noir	0	0	 0.000
 256.428	 0.689	complex	1	0	 2147483.647
 257.117	 0.535	ISI	0	0	 0.000
 257.652	 0.335	croix	0	0	 0.000
 257.987	 0.689	noir	0	0	 0.000
 258.676	 0.668	complex	1	0	 2147483.647
 259.344	 0.622	ISI	0	0	 0.000
 259.966	 0.335	croix	0	0	 0.000
 260.301	 0.689	noir	0	0	 0.000
 260.990	 0.669	H	0	0	 0.000
 261.659	 0.889	ISI	0	0	 0.000
 262.548	 0.334	croix	0	0	 0.000
 262.882	 0.689	noir	0	0	 0.000
 263.571	 0.670	pseudocomplex	1	0	 2147483.647
 264.241	 0.622	ISI	0	0	 0.000
 264.863	 0.335	croix	0	0	 0.000
 265.198	 0.689	noir	0	0	 0.000
 265.887	 0.668	H	0	0	 0.000
 266.555	 0.556	ISI	0	0	 0.000
 267.111	 0.334	croix	0	0	 0.000
 267.445	 0.689	noir	0	0	 0.000
 268.134	 0.669	pseudocomplex	1	0	 2147483.647
 268.803	 0.689	ISI	0	0	 0.000
 269.492	 0.334	croix	0	0	 0.000
 269.826	 0.689	noir	0	0	 0.000
 270.515	 0.669	pseudocomplex	1	0	 2147483.647
 271.184	 0.889	ISI	0	0	 0.000
 272.073	 0.335	croix	0	0	 0.000
 272.408	 0.689	noir	0	0	 0.000
 273.097	 0.669	pseudocomplex	1	0	 2147483.647
 273.766	 1.224	ISI	0	0	 0.000
 274.990	 0.334	croix	0	0	 0.000
 275.324	 0.689	noir	0	0	 0.000
 276.013	 0.689	pseudocomplex	1	0	 2147483.647
 276.702	 0.735	ISI	0	0	 0.000
 277.437	 0.335	croix	0	0	 0.000
 277.772	 0.689	noir	0	0	 0.000
 278.461	 0.689	H	0	0	 0.000
 279.150	 0.535	ISI	0	0	 0.000
 279.685	 0.334	croix	0	0	 0.000
 280.019	 0.689	noir	0	0	 0.000
 280.708	 0.669	complex	1	0	 2147483.647
 281.377	 0.623	ISI	0	0	 0.000
 282.000	 0.334	croix	0	0	 0.000
 282.334	 0.689	noir	0	0	 0.000
 283.023	 0.669	pseudocomplex	1	0	 2147483.647
 283.692	 0.756	ISI	0	0	 0.000
 284.448	 0.334	croix	0	0	 0.000
 284.782	 0.689	noir	0	0	 0.000
 285.471	 0.669	complex	1	0	 2147483.647
 286.140	 0.756	ISI	0	0	 0.000
 286.896	 0.334	croix	0	0	 0.000
 287.230	 0.689	noir	0	0	 0.000
 287.919	 0.669	H	0	0	 0.000
 288.588	 0.622	ISI	0	0	 0.000
 289.210	 0.335	croix	0	0	 0.000
 289.545	 0.688	noir	0	0	 0.000
 290.233	 0.669	complex	1	0	 2147483.647
 290.902	 0.756	ISI	0	0	 0.000
 291.658	 0.334	croix	0	0	 0.000
 291.992	 0.689	noir	0	0	 0.000
 292.681	 0.669	H	0	0	 0.000
 293.350	 0.689	ISI	0	0	 0.000
 294.039	 0.335	croix	0	0	 0.000
 294.374	 0.688	noir	0	0	 0.000
 295.062	 0.669	complex	1	0	 2147483.647
 295.731	 0.622	ISI	0	0	 0.000
 296.353	 0.335	croix	0	0	 0.000
 296.688	 0.668	noir	0	0	 0.000
 297.356	 0.689	complex	1	0	 2147483.647
 298.045	 0.535	ISI	0	0	 0.000
 298.580	 0.355	croix	0	0	 0.000
 298.935	 0.670	noir	0	0	 0.000
 299.605	 0.689	pseudocomplex	1	0	 2147483.647
 300.294	 0.735	ISI	0	0	 0.000
 301.029	 0.355	croix	0	0	 0.000
 301.384	 0.669	noir	0	0	 0.000
 302.053	 0.689	H	0	0	 0.000
 302.742	 0.668	ISI	0	0	 0.000
 303.410	 0.355	croix	0	0	 0.000
 303.765	 0.669	noir	0	0	 0.000
 304.434	 0.689	complex	1	0	 2147483.647
 305.123	 0.669	ISI	0	0	 0.000
 305.792	 0.354	croix	0	0	 0.000
 306.146	 0.669	noir	0	0	 0.000
 306.815	 0.689	H	0	0	 0.000
 307.504	 0.736	ISI	0	0	 0.000
 308.240	 0.354	croix	0	0	 0.000
 308.594	 0.669	noir	0	0	 0.000
 309.263	 0.689	complex	1	0	 2147483.647
 309.952	 0.602	ISI	0	0	 0.000
 310.554	 0.354	croix	0	0	 0.000
 310.908	 0.669	noir	0	0	 0.000
 311.577	 0.689	complex	1	0	 2147483.647
 312.266	 0.535	ISI	0	0	 0.000
 312.801	 0.334	croix	0	0	 0.000
 313.135	 0.689	noir	0	0	 0.000
 313.824	 0.669	H	0	0	 0.000
 314.493	 0.555	ISI	0	0	 0.000
 315.048	 0.335	croix	0	0	 0.000
 315.383	 0.689	noir	0	0	 0.000
 316.072	 0.670	complex	1	0	 2147483.647
 316.742	 1.023	ISI	0	0	 0.000
 317.765	 0.334	croix	0	0	 0.000
 318.099	 0.689	noir	0	0	 0.000
 318.788	 0.689	complex	1	0	 2147483.647
 319.477	 0.602	ISI	0	0	 0.000
 320.079	 0.334	croix	0	0	 0.000
 320.413	 0.689	noir	0	0	 0.000
 321.102	 0.669	complex	1	0	 2147483.647
 321.771	 0.555	ISI	0	0	 0.000
 322.326	 0.335	croix	0	0	 0.000
 322.661	 0.689	noir	0	0	 0.000
 323.350	 0.668	H	0	0	 0.000
 324.018	 1.024	ISI	0	0	 0.000
 325.042	 0.334	croix	0	0	 0.000
 325.376	 0.689	noir	0	0	 0.000
 326.065	 0.669	complex	1	0	 2147483.647
 326.734	 1.090	ISI	0	0	 0.000
 327.824	 0.355	croix	0	0	 0.000
 328.179	 0.668	noir	0	0	 0.000
 328.847	 0.689	pseudocomplex	1	0	 2147483.647
 329.536	 0.669	ISI	0	0	 0.000
 330.205	 4.080	Filler	0	0	 0.000
