onset	duration	trial_type	expected_response	given_response	response_time
 0.000	 4.073	Filler	0	0	 0.000
 4.073	 0.669	ISI	0	0	 0.000
 4.742	 0.355	croix	0	0	 0.000
 5.097	 0.669	noir	0	0	 0.000
 5.766	 0.688	pseudocomplex	1	0	 2147483.647
 6.454	 0.803	ISI	0	0	 0.000
 7.257	 0.355	croix	0	0	 0.000
 7.612	 0.668	noir	0	0	 0.000
 8.280	 0.689	H	0	0	 0.000
 8.969	 0.890	ISI	0	0	 0.000
 9.859	 0.334	croix	0	0	 0.000
 10.193	 0.669	noir	0	0	 0.000
 10.862	 0.689	complex	1	0	 2147483.647
 11.551	 0.535	ISI	0	0	 0.000
 12.086	 0.355	croix	0	0	 0.000
 12.441	 0.668	noir	0	0	 0.000
 13.109	 0.689	complex	1	0	 2147483.647
 13.798	 0.803	ISI	0	0	 0.000
 14.601	 0.354	croix	0	0	 0.000
 14.955	 0.669	noir	0	0	 0.000
 15.624	 0.689	H	0	0	 0.000
 16.313	 0.602	ISI	0	0	 0.000
 16.915	 0.355	croix	0	0	 0.000
 17.270	 0.669	noir	0	0	 0.000
 17.939	 0.689	complex	1	0	 2147483.647
 18.628	 0.602	ISI	0	0	 0.000
 19.230	 0.355	croix	0	0	 0.000
 19.585	 0.669	noir	0	0	 0.000
 20.254	 0.689	pseudocomplex	1	0	 2147483.647
 20.943	 0.802	ISI	0	0	 0.000
 21.745	 0.355	croix	0	0	 0.000
 22.100	 0.668	noir	0	0	 0.000
 22.768	 0.689	pseudocomplex	1	0	 2147483.647
 23.457	 0.535	ISI	0	0	 0.000
 23.992	 0.335	croix	0	0	 0.000
 24.327	 0.689	noir	0	0	 0.000
 25.016	 0.689	H	0	0	 0.000
 25.705	 0.602	ISI	0	0	 0.000
 26.307	 0.334	croix	0	0	 0.000
 26.641	 0.689	noir	0	0	 0.000
 27.330	 0.669	pseudocomplex	1	0	 2147483.647
 27.999	 0.756	ISI	0	0	 0.000
 28.755	 0.334	croix	0	0	 0.000
 29.089	 0.689	noir	0	0	 0.000
 29.778	 0.669	pseudocomplex	1	0	 2147483.647
 30.447	 0.555	ISI	0	0	 0.000
 31.002	 0.334	croix	0	0	 0.000
 31.336	 0.689	noir	0	0	 0.000
 32.025	 0.669	H	0	0	 0.000
 32.694	 0.756	ISI	0	0	 0.000
 33.450	 0.334	croix	0	0	 0.000
 33.784	 0.689	noir	0	0	 0.000
 34.473	 0.670	pseudocomplex	1	0	 2147483.647
 35.143	 0.622	ISI	0	0	 0.000
 35.765	 0.334	croix	0	0	 0.000
 36.099	 0.689	noir	0	0	 0.000
 36.788	 0.669	pseudocomplex	1	0	 2147483.647
 37.457	 0.689	ISI	0	0	 0.000
 38.146	 0.334	croix	0	0	 0.000
 38.480	 0.689	noir	0	0	 0.000
 39.169	 0.669	complex	1	0	 2147483.647
 39.838	 0.622	ISI	0	0	 0.000
 40.460	 0.335	croix	0	0	 0.000
 40.795	 0.668	noir	0	0	 0.000
 41.463	 0.689	H	0	0	 0.000
 42.152	 0.602	ISI	0	0	 0.000
 42.754	 0.355	croix	0	0	 0.000
 43.109	 0.669	noir	0	0	 0.000
 43.778	 0.689	complex	1	0	 2147483.647
 44.467	 0.668	ISI	0	0	 0.000
 45.135	 0.355	croix	0	0	 0.000
 45.490	 0.669	noir	0	0	 0.000
 46.159	 0.689	pseudocomplex	1	0	 2147483.647
 46.848	 0.535	ISI	0	0	 0.000
 47.383	 0.354	croix	0	0	 0.000
 47.737	 0.669	noir	0	0	 0.000
 48.406	 0.689	H	0	0	 0.000
 49.095	 0.535	ISI	0	0	 0.000
 49.630	 0.334	croix	0	0	 0.000
 49.964	 0.689	noir	0	0	 0.000
 50.653	 0.669	pseudocomplex	1	0	 2147483.647
 51.322	 0.890	ISI	0	0	 0.000
 52.212	 0.335	croix	0	0	 0.000
 52.547	 0.689	noir	0	0	 0.000
 53.236	 0.689	pseudocomplex	1	0	 2147483.647
 53.925	 0.669	ISI	0	0	 0.000
 54.594	 0.334	croix	0	0	 0.000
 54.928	 0.689	noir	0	0	 0.000
 55.617	 0.689	complex	1	0	 2147483.647
 56.306	 0.602	ISI	0	0	 0.000
 56.908	 0.334	croix	0	0	 0.000
 57.242	 0.689	noir	0	0	 0.000
 57.931	 0.669	complex	1	0	 2147483.647
 58.600	 0.555	ISI	0	0	 0.000
 59.155	 0.335	croix	0	0	 0.000
 59.490	 0.689	noir	0	0	 0.000
 60.179	 0.668	H	0	0	 0.000
 60.847	 0.556	ISI	0	0	 0.000
 61.403	 0.334	croix	0	0	 0.000
 61.737	 0.689	noir	0	0	 0.000
 62.426	 0.669	complex	1	0	 2147483.647
 63.095	 0.689	ISI	0	0	 0.000
 63.784	 0.334	croix	0	0	 0.000
 64.118	 0.669	noir	0	0	 0.000
 64.787	 0.689	pseudocomplex	1	0	 2147483.647
 65.476	 0.622	ISI	0	0	 0.000
 66.098	 0.334	croix	0	0	 0.000
 66.432	 0.669	noir	0	0	 0.000
 67.101	 0.689	pseudocomplex	1	0	 2147483.647
 67.790	 0.602	ISI	0	0	 0.000
 68.392	 0.355	croix	0	0	 0.000
 68.747	 0.668	noir	0	0	 0.000
 69.415	 0.690	H	0	0	 0.000
 70.105	 0.669	ISI	0	0	 0.000
 70.774	 0.355	croix	0	0	 0.000
 71.129	 0.668	noir	0	0	 0.000
 71.797	 0.689	complex	1	0	 2147483.647
 72.486	 0.669	ISI	0	0	 0.000
 73.155	 0.355	croix	0	0	 0.000
 73.510	 0.668	noir	0	0	 0.000
 74.178	 0.689	complex	1	0	 2147483.647
 74.867	 1.559	ISI	0	0	 0.000
 76.426	 0.334	croix	0	0	 0.000
 76.760	 0.689	noir	0	0	 0.000
 77.449	 0.669	pseudocomplex	1	0	 2147483.647
 78.118	 0.689	ISI	0	0	 0.000
 78.807	 0.334	croix	0	0	 0.000
 79.141	 0.689	noir	0	0	 0.000
 79.830	 0.669	H	0	0	 0.000
 80.499	 0.555	ISI	0	0	 0.000
 81.054	 0.335	croix	0	0	 0.000
 81.389	 0.689	noir	0	0	 0.000
 82.078	 0.668	pseudocomplex	1	0	 2147483.647
 82.746	 0.555	ISI	0	0	 0.000
 83.301	 0.335	croix	0	0	 0.000
 83.636	 0.669	noir	0	0	 0.000
 84.305	 0.689	pseudocomplex	1	0	 2147483.647
 84.994	 0.689	ISI	0	0	 0.000
 85.683	 0.334	croix	0	0	 0.000
 86.017	 0.669	noir	0	0	 0.000
 86.686	 0.690	H	0	0	 0.000
 87.376	 0.602	ISI	0	0	 0.000
 87.978	 0.354	croix	0	0	 0.000
 88.332	 0.669	noir	0	0	 0.000
 89.001	 0.689	complex	1	0	 2147483.647
 89.690	 0.602	ISI	0	0	 0.000
 90.292	 0.354	croix	0	0	 0.000
 90.646	 0.669	noir	0	0	 0.000
 91.315	 0.689	pseudocomplex	1	0	 2147483.647
 92.004	 0.535	ISI	0	0	 0.000
 92.539	 0.335	croix	0	0	 0.000
 92.874	 0.688	noir	0	0	 0.000
 93.562	 0.689	pseudocomplex	1	0	 2147483.647
 94.251	 0.669	ISI	0	0	 0.000
 94.920	 0.335	croix	0	0	 0.000
 95.255	 0.689	noir	0	0	 0.000
 95.944	 0.668	complex	1	0	 2147483.647
 96.612	 0.756	ISI	0	0	 0.000
 97.368	 0.335	croix	0	0	 0.000
 97.703	 0.689	noir	0	0	 0.000
 98.392	 0.668	H	0	0	 0.000
 99.060	 0.756	ISI	0	0	 0.000
 99.816	 0.335	croix	0	0	 0.000
 100.151	 0.688	noir	0	0	 0.000
 100.839	 0.669	complex	1	0	 2147483.647
 101.508	 0.622	ISI	0	0	 0.000
 102.130	 0.335	croix	0	0	 0.000
 102.465	 0.689	noir	0	0	 0.000
 103.154	 0.668	complex	1	0	 2147483.647
 103.822	 0.623	ISI	0	0	 0.000
 104.445	 0.335	croix	0	0	 0.000
 104.780	 0.689	noir	0	0	 0.000
 105.469	 0.669	complex	1	0	 2147483.647
 106.138	 0.822	ISI	0	0	 0.000
 106.960	 0.335	croix	0	0	 0.000
 107.295	 0.689	noir	0	0	 0.000
 107.984	 0.668	H	0	0	 0.000
 108.652	 0.623	ISI	0	0	 0.000
 109.275	 0.334	croix	0	0	 0.000
 109.609	 0.689	noir	0	0	 0.000
 110.298	 0.669	complex	1	0	 2147483.647
 110.967	 0.822	ISI	0	0	 0.000
 111.789	 0.335	croix	0	0	 0.000
 112.124	 0.689	noir	0	0	 0.000
 112.813	 0.668	complex	1	0	 2147483.647
 113.481	 0.556	ISI	0	0	 0.000
 114.037	 0.334	croix	0	0	 0.000
 114.371	 0.689	noir	0	0	 0.000
 115.060	 0.669	pseudocomplex	1	0	 2147483.647
 115.729	 0.622	ISI	0	0	 0.000
 116.351	 0.334	croix	0	0	 0.000
 116.685	 0.669	noir	0	0	 0.000
 117.354	 0.689	H	0	0	 0.000
 118.043	 0.756	ISI	0	0	 0.000
 118.799	 0.334	croix	0	0	 0.000
 119.133	 0.669	noir	0	0	 0.000
 119.802	 0.689	pseudocomplex	1	0	 2147483.647
 120.491	 0.756	ISI	0	0	 0.000
 121.247	 0.334	croix	0	0	 0.000
 121.581	 0.670	noir	0	0	 0.000
 122.251	 0.689	pseudocomplex	1	0	 2147483.647
 122.940	 0.602	ISI	0	0	 0.000
 123.542	 0.354	croix	0	0	 0.000
 123.896	 0.669	noir	0	0	 0.000
 124.565	 0.689	H	0	0	 0.000
 125.254	 0.602	ISI	0	0	 0.000
 125.856	 0.355	croix	0	0	 0.000
 126.211	 0.668	noir	0	0	 0.000
 126.879	 0.689	pseudocomplex	1	0	 2147483.647
 127.568	 0.602	ISI	0	0	 0.000
 128.170	 0.355	croix	0	0	 0.000
 128.525	 0.669	noir	0	0	 0.000
 129.194	 0.689	pseudocomplex	1	0	 2147483.647
 129.883	 0.601	ISI	0	0	 0.000
 130.484	 0.335	croix	0	0	 0.000
 130.819	 0.689	noir	0	0	 0.000
 131.508	 0.689	pseudocomplex	1	0	 2147483.647
 132.197	 0.869	ISI	0	0	 0.000
 133.066	 0.355	croix	0	0	 0.000
 133.421	 0.668	noir	0	0	 0.000
 134.089	 0.689	H	0	0	 0.000
 134.778	 0.937	ISI	0	0	 0.000
 135.715	 0.354	croix	0	0	 0.000
 136.069	 0.669	noir	0	0	 0.000
 136.738	 0.689	pseudocomplex	1	0	 2147483.647
 137.427	 0.602	ISI	0	0	 0.000
 138.029	 0.354	croix	0	0	 0.000
 138.383	 0.669	noir	0	0	 0.000
 139.052	 0.690	complex	1	0	 2147483.647
 139.742	 0.535	ISI	0	0	 0.000
 140.277	 0.335	croix	0	0	 0.000
 140.612	 0.689	noir	0	0	 0.000
 141.301	 0.688	pseudocomplex	1	0	 2147483.647
 141.989	 0.602	ISI	0	0	 0.000
 142.591	 0.335	croix	0	0	 0.000
 142.926	 0.689	noir	0	0	 0.000
 143.615	 0.669	complex	1	0	 2147483.647
 144.284	 0.755	ISI	0	0	 0.000
 145.039	 0.335	croix	0	0	 0.000
 145.374	 0.689	noir	0	0	 0.000
 146.063	 0.668	pseudocomplex	1	0	 2147483.647
 146.731	 0.556	ISI	0	0	 0.000
 147.287	 0.334	croix	0	0	 0.000
 147.621	 0.689	noir	0	0	 0.000
 148.310	 0.669	complex	1	0	 2147483.647
 148.979	 0.756	ISI	0	0	 0.000
 149.735	 0.334	croix	0	0	 0.000
 150.069	 0.689	noir	0	0	 0.000
 150.758	 0.669	H	0	0	 0.000
 151.427	 0.555	ISI	0	0	 0.000
 151.982	 0.334	croix	0	0	 0.000
 152.316	 0.689	noir	0	0	 0.000
 153.005	 0.669	complex	1	0	 2147483.647
 153.674	 0.555	ISI	0	0	 0.000
 154.229	 0.335	croix	0	0	 0.000
 154.564	 0.668	noir	0	0	 0.000
 155.232	 0.689	complex	1	0	 2147483.647
 155.921	 0.535	ISI	0	0	 0.000
 156.456	 0.355	croix	0	0	 0.000
 156.811	 0.670	noir	0	0	 0.000
 157.481	 0.689	complex	1	0	 2147483.647
 158.170	 0.802	ISI	0	0	 0.000
 158.972	 0.355	croix	0	0	 0.000
 159.327	 0.669	noir	0	0	 0.000
 159.996	 0.689	complex	1	0	 2147483.647
 160.685	 0.956	ISI	0	0	 0.000
 161.641	 0.334	croix	0	0	 0.000
 161.975	 0.669	noir	0	0	 0.000
 162.644	 0.689	pseudocomplex	1	0	 2147483.647
 163.333	 0.756	ISI	0	0	 0.000
 164.089	 0.334	croix	0	0	 0.000
 164.423	 0.669	noir	0	0	 0.000
 165.092	 0.689	complex	1	0	 2147483.647
 165.781	 0.689	ISI	0	0	 0.000
 166.470	 0.334	croix	0	0	 0.000
 166.804	 0.669	noir	0	0	 0.000
 167.473	 0.689	H	0	0	 0.000
 168.162	 0.535	ISI	0	0	 0.000
 168.697	 0.355	croix	0	0	 0.000
 169.052	 0.669	noir	0	0	 0.000
 169.721	 0.688	pseudocomplex	1	0	 2147483.647
 170.409	 1.158	ISI	0	0	 0.000
 171.567	 0.334	croix	0	0	 0.000
 171.901	 0.689	noir	0	0	 0.000
 172.590	 0.669	pseudocomplex	1	0	 2147483.647
 173.259	 0.689	ISI	0	0	 0.000
 173.948	 0.334	croix	0	0	 0.000
 174.282	 0.670	noir	0	0	 0.000
 174.952	 0.689	complex	1	0	 2147483.647
 175.641	 0.756	ISI	0	0	 0.000
 176.397	 0.334	croix	0	0	 0.000
 176.731	 0.669	noir	0	0	 0.000
 177.400	 0.689	complex	1	0	 2147483.647
 178.089	 0.622	ISI	0	0	 0.000
 178.711	 0.334	croix	0	0	 0.000
 179.045	 0.669	noir	0	0	 0.000
 179.714	 0.689	H	0	0	 0.000
 180.403	 0.823	ISI	0	0	 0.000
 181.226	 0.334	croix	0	0	 0.000
 181.560	 0.669	noir	0	0	 0.000
 182.229	 0.689	complex	1	0	 2147483.647
 182.918	 0.889	ISI	0	0	 0.000
 183.807	 0.335	croix	0	0	 0.000
 184.142	 0.689	noir	0	0	 0.000
 184.831	 0.668	pseudocomplex	1	0	 2147483.647
 185.499	 0.689	ISI	0	0	 0.000
 186.188	 0.335	croix	0	0	 0.000
 186.523	 0.669	noir	0	0	 0.000
 187.192	 0.689	complex	1	0	 2147483.647
 187.881	 0.822	ISI	0	0	 0.000
 188.703	 0.335	croix	0	0	 0.000
 189.038	 0.689	noir	0	0	 0.000
 189.727	 0.668	H	0	0	 0.000
 190.395	 0.689	ISI	0	0	 0.000
 191.084	 0.335	croix	0	0	 0.000
 191.419	 0.668	noir	0	0	 0.000
 192.087	 0.690	pseudocomplex	1	0	 2147483.647
 192.777	 0.689	ISI	0	0	 0.000
 193.466	 0.335	croix	0	0	 0.000
 193.801	 0.669	noir	0	0	 0.000
 194.470	 0.689	pseudocomplex	1	0	 2147483.647
 195.159	 0.601	ISI	0	0	 0.000
 195.760	 0.355	croix	0	0	 0.000
 196.115	 0.669	noir	0	0	 0.000
 196.784	 0.689	complex	1	0	 2147483.647
 197.473	 0.535	ISI	0	0	 0.000
 198.008	 0.354	croix	0	0	 0.000
 198.362	 0.669	noir	0	0	 0.000
 199.031	 0.689	complex	1	0	 2147483.647
 199.720	 0.602	ISI	0	0	 0.000
 200.322	 0.334	croix	0	0	 0.000
 200.656	 0.689	noir	0	0	 0.000
 201.345	 0.689	H	0	0	 0.000
 202.034	 0.535	ISI	0	0	 0.000
 202.569	 0.335	croix	0	0	 0.000
 202.904	 0.689	noir	0	0	 0.000
 203.593	 0.668	complex	1	0	 2147483.647
 204.261	 0.756	ISI	0	0	 0.000
 205.017	 0.335	croix	0	0	 0.000
 205.352	 0.689	noir	0	0	 0.000
 206.041	 0.668	complex	1	0	 2147483.647
 206.709	 0.622	ISI	0	0	 0.000
 207.331	 0.335	croix	0	0	 0.000
 207.666	 0.689	noir	0	0	 0.000
 208.355	 0.669	complex	1	0	 2147483.647
 209.024	 0.756	ISI	0	0	 0.000
 209.780	 0.335	croix	0	0	 0.000
 210.115	 0.689	noir	0	0	 0.000
 210.804	 0.668	H	0	0	 0.000
 211.472	 0.556	ISI	0	0	 0.000
 212.028	 0.334	croix	0	0	 0.000
 212.362	 0.689	noir	0	0	 0.000
 213.051	 0.669	pseudocomplex	1	0	 2147483.647
 213.720	 0.689	ISI	0	0	 0.000
 214.409	 0.334	croix	0	0	 0.000
 214.743	 0.689	noir	0	0	 0.000
 215.432	 0.669	pseudocomplex	1	0	 2147483.647
 216.101	 0.823	ISI	0	0	 0.000
 216.924	 0.334	croix	0	0	 0.000
 217.258	 0.689	noir	0	0	 0.000
 217.947	 0.669	pseudocomplex	1	0	 2147483.647
 218.616	 0.822	ISI	0	0	 0.000
 219.438	 0.335	croix	0	0	 0.000
 219.773	 0.689	noir	0	0	 0.000
 220.462	 0.669	complex	1	0	 2147483.647
 221.131	 0.889	ISI	0	0	 0.000
 222.020	 0.335	croix	0	0	 0.000
 222.355	 0.688	noir	0	0	 0.000
 223.043	 0.669	H	0	0	 0.000
 223.712	 0.622	ISI	0	0	 0.000
 224.334	 0.335	croix	0	0	 0.000
 224.669	 0.689	noir	0	0	 0.000
 225.358	 0.668	pseudocomplex	1	0	 2147483.647
 226.026	 0.623	ISI	0	0	 0.000
 226.649	 0.334	croix	0	0	 0.000
 226.983	 0.690	noir	0	0	 0.000
 227.673	 0.669	pseudocomplex	1	0	 2147483.647
 228.342	 0.555	ISI	0	0	 0.000
 228.897	 0.334	croix	0	0	 0.000
 229.231	 0.669	noir	0	0	 0.000
 229.900	 0.689	pseudocomplex	1	0	 2147483.647
 230.589	 1.157	ISI	0	0	 0.000
 231.746	 0.334	croix	0	0	 0.000
 232.080	 0.689	noir	0	0	 0.000
 232.769	 0.669	H	0	0	 0.000
 233.438	 0.689	ISI	0	0	 0.000
 234.127	 0.335	croix	0	0	 0.000
 234.462	 0.688	noir	0	0	 0.000
 235.150	 0.669	pseudocomplex	1	0	 2147483.647
 235.819	 0.957	ISI	0	0	 0.000
 236.776	 0.334	croix	0	0	 0.000
 237.110	 0.689	noir	0	0	 0.000
 237.799	 0.669	pseudocomplex	1	0	 2147483.647
 238.468	 0.689	ISI	0	0	 0.000
 239.157	 0.334	croix	0	0	 0.000
 239.491	 0.689	noir	0	0	 0.000
 240.180	 0.669	pseudocomplex	1	0	 2147483.647
 240.849	 0.689	ISI	0	0	 0.000
 241.538	 0.334	croix	0	0	 0.000
 241.872	 0.689	noir	0	0	 0.000
 242.561	 0.669	H	0	0	 0.000
 243.230	 0.622	ISI	0	0	 0.000
 243.852	 0.334	croix	0	0	 0.000
 244.186	 0.690	noir	0	0	 0.000
 244.876	 0.669	pseudocomplex	1	0	 2147483.647
 245.545	 0.622	ISI	0	0	 0.000
 246.167	 0.335	croix	0	0	 0.000
 246.502	 0.668	noir	0	0	 0.000
 247.170	 0.689	complex	1	0	 2147483.647
 247.859	 0.622	ISI	0	0	 0.000
 248.481	 0.335	croix	0	0	 0.000
 248.816	 0.669	noir	0	0	 0.000
 249.485	 0.689	pseudocomplex	1	0	 2147483.647
 250.174	 0.601	ISI	0	0	 0.000
 250.775	 0.355	croix	0	0	 0.000
 251.130	 0.669	noir	0	0	 0.000
 251.799	 0.689	complex	1	0	 2147483.647
 252.488	 0.602	ISI	0	0	 0.000
 253.090	 0.354	croix	0	0	 0.000
 253.444	 0.669	noir	0	0	 0.000
 254.113	 0.689	H	0	0	 0.000
 254.802	 0.602	ISI	0	0	 0.000
 255.404	 0.334	croix	0	0	 0.000
 255.738	 0.689	noir	0	0	 0.000
 256.427	 0.689	complex	1	0	 2147483.647
 257.116	 0.535	ISI	0	0	 0.000
 257.651	 0.335	croix	0	0	 0.000
 257.986	 0.689	noir	0	0	 0.000
 258.675	 0.668	complex	1	0	 2147483.647
 259.343	 0.622	ISI	0	0	 0.000
 259.965	 0.335	croix	0	0	 0.000
 260.300	 0.689	noir	0	0	 0.000
 260.989	 0.669	H	0	0	 0.000
 261.658	 0.890	ISI	0	0	 0.000
 262.548	 0.334	croix	0	0	 0.000
 262.882	 0.689	noir	0	0	 0.000
 263.571	 0.669	pseudocomplex	1	0	 2147483.647
 264.240	 0.622	ISI	0	0	 0.000
 264.862	 0.335	croix	0	0	 0.000
 265.197	 0.689	noir	0	0	 0.000
 265.886	 0.668	H	0	0	 0.000
 266.554	 0.556	ISI	0	0	 0.000
 267.110	 0.334	croix	0	0	 0.000
 267.444	 0.689	noir	0	0	 0.000
 268.133	 0.669	pseudocomplex	1	0	 2147483.647
 268.802	 0.689	ISI	0	0	 0.000
 269.491	 0.334	croix	0	0	 0.000
 269.825	 0.689	noir	0	0	 0.000
 270.514	 0.669	pseudocomplex	1	0	 2147483.647
 271.183	 0.889	ISI	0	0	 0.000
 272.072	 0.335	croix	0	0	 0.000
 272.407	 0.689	noir	0	0	 0.000
 273.096	 0.669	pseudocomplex	1	0	 2147483.647
 273.765	 1.224	ISI	0	0	 0.000
 274.989	 0.334	croix	0	0	 0.000
 275.323	 0.689	noir	0	0	 0.000
 276.012	 0.689	pseudocomplex	1	0	 2147483.647
 276.701	 0.735	ISI	0	0	 0.000
 277.436	 0.335	croix	0	0	 0.000
 277.771	 0.689	noir	0	0	 0.000
 278.460	 0.689	H	0	0	 0.000
 279.149	 0.536	ISI	0	0	 0.000
 279.685	 0.334	croix	0	0	 0.000
 280.019	 0.689	noir	0	0	 0.000
 280.708	 0.669	complex	1	0	 2147483.647
 281.377	 0.622	ISI	0	0	 0.000
 281.999	 0.334	croix	0	0	 0.000
 282.333	 0.689	noir	0	0	 0.000
 283.022	 0.669	pseudocomplex	1	0	 2147483.647
 283.691	 0.756	ISI	0	0	 0.000
 284.447	 0.334	croix	0	0	 0.000
 284.781	 0.689	noir	0	0	 0.000
 285.470	 0.669	complex	1	0	 2147483.647
 286.139	 0.756	ISI	0	0	 0.000
 286.895	 0.334	croix	0	0	 0.000
 287.229	 0.689	noir	0	0	 0.000
 287.918	 0.669	H	0	0	 0.000
 288.587	 0.622	ISI	0	0	 0.000
 289.209	 0.334	croix	0	0	 0.000
 289.543	 0.689	noir	0	0	 0.000
 290.232	 0.669	complex	1	0	 2147483.647
 290.901	 0.756	ISI	0	0	 0.000
 291.657	 0.334	croix	0	0	 0.000
 291.991	 0.689	noir	0	0	 0.000
 292.680	 0.669	H	0	0	 0.000
 293.349	 0.689	ISI	0	0	 0.000
 294.038	 0.335	croix	0	0	 0.000
 294.373	 0.688	noir	0	0	 0.000
 295.061	 0.669	complex	1	0	 2147483.647
 295.730	 0.622	ISI	0	0	 0.000
 296.352	 0.335	croix	0	0	 0.000
 296.687	 0.669	noir	0	0	 0.000
 297.356	 0.689	complex	1	0	 2147483.647
 298.045	 0.535	ISI	0	0	 0.000
 298.580	 0.355	croix	0	0	 0.000
 298.935	 0.669	noir	0	0	 0.000
 299.604	 0.689	pseudocomplex	1	0	 2147483.647
 300.293	 0.735	ISI	0	0	 0.000
 301.028	 0.355	croix	0	0	 0.000
 301.383	 0.669	noir	0	0	 0.000
 302.052	 0.689	H	0	0	 0.000
 302.741	 0.668	ISI	0	0	 0.000
 303.409	 0.355	croix	0	0	 0.000
 303.764	 0.669	noir	0	0	 0.000
 304.433	 0.689	complex	1	0	 2147483.647
 305.122	 0.669	ISI	0	0	 0.000
 305.791	 0.354	croix	0	0	 0.000
 306.145	 0.669	noir	0	0	 0.000
 306.814	 0.689	H	0	0	 0.000
 307.503	 0.736	ISI	0	0	 0.000
 308.239	 0.354	croix	0	0	 0.000
 308.593	 0.669	noir	0	0	 0.000
 309.262	 0.689	complex	1	0	 2147483.647
 309.951	 0.602	ISI	0	0	 0.000
 310.553	 0.354	croix	0	0	 0.000
 310.907	 0.669	noir	0	0	 0.000
 311.576	 0.689	complex	1	0	 2147483.647
 312.265	 0.535	ISI	0	0	 0.000
 312.800	 0.334	croix	0	0	 0.000
 313.134	 0.689	noir	0	0	 0.000
 313.823	 0.669	H	0	0	 0.000
 314.492	 0.556	ISI	0	0	 0.000
 315.048	 0.335	croix	0	0	 0.000
 315.383	 0.689	noir	0	0	 0.000
 316.072	 0.669	complex	1	0	 2147483.647
 316.741	 1.023	ISI	0	0	 0.000
 317.764	 0.334	croix	0	0	 0.000
 318.098	 0.689	noir	0	0	 0.000
 318.787	 0.689	complex	1	0	 2147483.647
 319.476	 0.602	ISI	0	0	 0.000
 320.078	 0.334	croix	0	0	 0.000
 320.412	 0.689	noir	0	0	 0.000
 321.101	 0.669	complex	1	0	 2147483.647
 321.770	 0.555	ISI	0	0	 0.000
 322.325	 0.335	croix	0	0	 0.000
 322.660	 0.689	noir	0	0	 0.000
 323.349	 0.668	H	0	0	 0.000
 324.017	 1.024	ISI	0	0	 0.000
 325.041	 0.334	croix	0	0	 0.000
 325.375	 0.689	noir	0	0	 0.000
 326.064	 0.669	complex	1	0	 2147483.647
 326.733	 1.090	ISI	0	0	 0.000
 327.823	 0.355	croix	0	0	 0.000
 328.178	 0.669	noir	0	0	 0.000
 328.847	 0.688	pseudocomplex	1	0	 2147483.647
 329.535	 0.669	ISI	0	0	 0.000
 330.204	 4.080	Filler	0	0	 0.000
