onset	duration	trial_type	expected_response	given_response	response_time
 0.000	 4.073	0	0	0	 0.000
 4.073	 2.047	8	0	0	 0.000
 6.120	 0.401	0	0	0	 0.000
 6.521	 2.046	8	0	0	 0.000
 8.567	 1.358	0	0	0	 0.000
 9.925	 2.027	0	0	0	 0.000
 11.952	 0.133	1	0	0	 0.000
 12.085	 0.154	1	0	0	 0.000
 12.239	 0.134	1	0	0	 0.000
 12.373	 0.134	1	0	0	 0.000
 12.507	 0.134	1	0	0	 0.000
 12.641	 0.133	1	0	0	 0.000
 12.774	 0.134	1	0	0	 0.000
 12.908	 0.134	1	0	0	 0.000
 13.042	 0.134	1	0	0	 0.000
 13.176	 0.133	1	0	0	 0.000
 13.309	 0.155	1	0	0	 0.000
 13.464	 0.134	1	0	0	 0.000
 13.598	 1.157	0	0	0	 0.000
 14.755	 0.268	3	2	0	 2147483.647
 15.023	 0.267	3	0	0	 0.000
 15.290	 0.268	3	0	0	 0.000
 15.558	 0.267	3	0	0	 0.000
 15.825	 2.602	0	0	0	 0.000
 18.427	 2.027	10	0	0	 0.000
 20.454	 1.023	0	0	0	 0.000
 21.477	 0.268	5	4	0	 2147483.647
 21.745	 0.287	5	0	0	 0.000
 22.032	 0.268	5	0	0	 0.000
 22.300	 0.267	5	0	0	 0.000
 22.567	 1.692	0	1	0	 2147483.647
 24.259	 2.047	10	0	0	 0.000
 26.306	 1.023	0	0	0	 0.000
 27.329	 2.582	4	2	0	 2147483.647
 29.911	 0.468	0	0	0	 0.000
 30.379	 2.583	6	4	0	 2147483.647
 32.962	 0.488	0	0	0	 0.000
 33.450	 2.047	10	0	0	 0.000
 35.497	 1.358	0	0	0	 0.000
 36.855	 0.133	2	0	0	 0.000
 36.988	 0.134	2	0	0	 0.000
 37.122	 0.134	2	0	0	 0.000
 37.256	 0.134	2	0	0	 0.000
 37.390	 0.134	2	0	0	 0.000
 37.524	 0.133	2	0	0	 0.000
 37.657	 0.134	2	0	0	 0.000
 37.791	 0.154	2	0	0	 0.000
 37.945	 0.134	2	0	0	 0.000
 38.079	 0.133	2	0	0	 0.000
 38.212	 0.134	2	0	0	 0.000
 38.346	 0.134	2	0	0	 0.000
 38.480	 0.823	0	0	0	 0.000
 39.303	 0.267	7	0	0	 0.000
 39.570	 0.268	7	0	0	 0.000
 39.838	 0.267	7	0	0	 0.000
 40.105	 0.288	7	0	0	 0.000
 40.393	 2.582	0	0	0	 0.000
 42.975	 0.267	9	0	0	 0.000
 43.242	 0.268	9	0	0	 0.000
 43.510	 0.267	9	0	0	 0.000
 43.777	 0.288	9	0	0	 0.000
 44.065	 1.070	0	0	0	 0.000
 45.135	 0.288	9	0	0	 0.000
 45.423	 0.267	9	0	0	 0.000
 45.690	 0.268	9	0	0	 0.000
 45.958	 0.267	9	0	0	 0.000
 46.225	 1.980	0	0	0	 0.000
 48.205	 0.268	7	0	0	 0.000
 48.473	 0.268	7	0	0	 0.000
 48.741	 0.288	7	0	0	 0.000
 49.029	 0.267	7	0	0	 0.000
 49.296	 2.314	0	0	0	 0.000
 51.610	 0.268	7	0	0	 0.000
 51.878	 0.267	7	0	0	 0.000
 52.145	 0.268	7	0	0	 0.000
 52.413	 0.288	7	0	0	 0.000
 52.701	 1.692	0	0	0	 0.000
 54.393	 3.050	0	0	0	 0.000
 57.443	 2.802	0	0	0	 0.000
 60.245	 0.268	9	0	0	 0.000
 60.513	 0.267	9	0	0	 0.000
 60.780	 0.268	9	0	0	 0.000
 61.048	 0.287	9	0	0	 0.000
 61.335	 2.582	0	0	0	 0.000
 63.917	 0.134	1	0	0	 0.000
 64.051	 0.133	1	0	0	 0.000
 64.184	 0.134	1	0	0	 0.000
 64.318	 0.134	1	0	0	 0.000
 64.452	 0.134	1	0	0	 0.000
 64.586	 0.134	1	0	0	 0.000
 64.720	 0.153	1	0	0	 0.000
 64.873	 0.134	1	0	0	 0.000
 65.007	 0.134	1	0	0	 0.000
 65.141	 0.134	1	0	0	 0.000
 65.275	 0.133	1	0	0	 0.000
 65.408	 0.134	1	0	0	 0.000
 65.542	 1.158	0	0	0	 0.000
 66.700	 3.672	4	2	0	 2147483.647
 70.372	 3.070	0	0	0	 0.000
 73.442	 0.268	5	4	0	 2147483.647
 73.710	 0.267	5	0	0	 0.000
 73.977	 0.268	5	0	0	 0.000
 74.245	 0.267	5	0	0	 0.000
 74.512	 1.378	0	0	0	 0.000
 75.890	 2.027	6	4	0	 2147483.647
 77.917	 1.645	0	0	0	 0.000
 79.562	 0.268	9	0	0	 0.000
 79.830	 0.267	9	0	0	 0.000
 80.097	 0.268	9	0	0	 0.000
 80.365	 0.267	9	0	0	 0.000
 80.632	 1.980	0	0	0	 0.000
 82.612	 2.449	0	0	0	 0.000
 85.061	 3.070	0	0	0	 0.000
 88.131	 0.267	7	0	0	 0.000
 88.398	 0.268	7	0	0	 0.000
 88.666	 0.268	7	0	0	 0.000
 88.934	 0.267	7	0	0	 0.000
 89.201	 2.602	0	0	0	 0.000
 91.803	 0.267	3	2	0	 2147483.647
 92.070	 0.268	3	0	0	 0.000
 92.338	 0.267	3	0	0	 0.000
 92.605	 0.268	3	0	0	 0.000
 92.873	 1.712	0	0	0	 0.000
 94.585	 3.405	10	0	0	 0.000
 97.990	 3.051	0	0	0	 0.000
 101.041	 0.133	2	0	0	 0.000
 101.174	 0.134	2	0	0	 0.000
 101.308	 0.134	2	0	0	 0.000
 101.442	 0.154	2	0	0	 0.000
 101.596	 0.133	2	0	0	 0.000
 101.729	 0.134	2	0	0	 0.000
 101.863	 0.134	2	0	0	 0.000
 101.997	 0.134	2	0	0	 0.000
 102.131	 0.134	2	0	0	 0.000
 102.265	 0.133	2	0	0	 0.000
 102.398	 0.134	2	0	0	 0.000
 102.532	 0.134	2	0	0	 0.000
 102.666	 1.445	0	0	0	 0.000
 104.111	 3.049	0	0	0	 0.000
 107.160	 3.070	0	0	0	 0.000
 110.230	 3.050	0	0	0	 0.000
 113.280	 0.268	7	0	0	 0.000
 113.548	 0.287	7	0	0	 0.000
 113.835	 0.268	7	0	0	 0.000
 114.103	 0.268	7	0	0	 0.000
 114.371	 1.357	0	0	0	 0.000
 115.728	 3.406	0	0	0	 0.000
 119.134	 3.050	0	0	0	 0.000
 122.184	 2.046	6	4	0	 2147483.647
 124.230	 0.756	0	0	0	 0.000
 124.986	 2.027	10	0	0	 0.000
 127.013	 1.357	0	0	0	 0.000
 128.370	 0.154	2	0	0	 0.000
 128.524	 0.134	2	0	0	 0.000
 128.658	 0.134	2	0	0	 0.000
 128.792	 0.133	2	0	0	 0.000
 128.925	 0.134	2	0	0	 0.000
 129.059	 0.134	2	0	0	 0.000
 129.193	 0.134	2	0	0	 0.000
 129.327	 0.134	2	0	0	 0.000
 129.461	 0.133	2	0	0	 0.000
 129.594	 0.154	2	0	0	 0.000
 129.748	 0.134	2	0	0	 0.000
 129.882	 0.134	2	0	0	 0.000
 130.016	 1.291	0	0	0	 0.000
 131.307	 2.026	8	0	0	 0.000
 133.333	 1.645	0	0	0	 0.000
 134.978	 2.449	0	0	0	 0.000
 137.427	 0.268	9	0	0	 0.000
 137.695	 0.267	9	0	0	 0.000
 137.962	 0.268	9	0	0	 0.000
 138.230	 0.288	9	0	0	 0.000
 138.518	 2.581	0	0	0	 0.000
 141.099	 0.268	7	0	0	 0.000
 141.367	 0.267	7	0	0	 0.000
 141.634	 0.268	7	0	0	 0.000
 141.902	 0.288	7	0	0	 0.000
 142.190	 1.692	0	0	0	 0.000
 143.882	 0.267	7	0	0	 0.000
 144.149	 0.288	7	0	0	 0.000
 144.437	 0.267	7	0	0	 0.000
 144.704	 0.268	7	0	0	 0.000
 144.972	 1.692	0	0	0	 0.000
 146.664	 0.134	2	0	0	 0.000
 146.798	 0.154	2	0	0	 0.000
 146.952	 0.133	2	0	0	 0.000
 147.085	 0.134	2	0	0	 0.000
 147.219	 0.134	2	0	0	 0.000
 147.353	 0.134	2	0	0	 0.000
 147.487	 0.134	2	0	0	 0.000
 147.621	 0.133	2	0	0	 0.000
 147.754	 0.134	2	0	0	 0.000
 147.888	 0.134	2	0	0	 0.000
 148.022	 0.154	2	0	0	 0.000
 148.176	 0.133	2	0	0	 0.000
 148.309	 1.425	0	0	0	 0.000
 149.734	 0.268	3	2	0	 2147483.647
 150.002	 0.267	3	0	0	 0.000
 150.269	 0.288	3	0	0	 0.000
 150.557	 0.267	3	0	0	 0.000
 150.824	 2.314	3	0	0	 0.000
 153.138	 2.028	10	0	0	 0.000
 155.166	 0.756	0	0	0	 0.000
 155.922	 0.134	1	0	0	 0.000
 156.056	 0.133	1	0	0	 0.000
 156.189	 0.134	1	0	0	 0.000
 156.323	 0.134	1	0	0	 0.000
 156.457	 0.134	1	0	0	 0.000
 156.591	 0.154	1	0	0	 0.000
 156.745	 0.133	1	0	0	 0.000
 156.878	 0.134	1	0	0	 0.000
 157.012	 0.134	1	0	0	 0.000
 157.146	 0.134	1	0	0	 0.000
 157.280	 0.133	1	0	0	 0.000
 157.413	 0.134	1	0	0	 0.000
 157.547	 2.047	0	0	0	 0.000
 159.594	 2.046	8	0	0	 0.000
 161.640	 1.626	0	0	0	 0.000
 163.266	 0.133	2	0	0	 0.000
 163.399	 0.134	2	0	0	 0.000
 163.533	 0.134	2	0	0	 0.000
 163.667	 0.134	2	0	0	 0.000
 163.801	 0.133	2	0	0	 0.000
 163.934	 0.154	2	0	0	 0.000
 164.088	 0.134	2	0	0	 0.000
 164.222	 0.134	2	0	0	 0.000
 164.356	 0.134	2	0	0	 0.000
 164.490	 0.133	2	0	0	 0.000
 164.623	 0.134	2	0	0	 0.000
 164.757	 0.134	2	0	0	 0.000
 164.891	 1.425	0	0	0	 0.000
 166.316	 0.287	9	0	0	 0.000
 166.603	 0.268	9	0	0	 0.000
 166.871	 0.267	9	0	0	 0.000
 167.138	 0.268	9	0	0	 0.000
 167.406	 1.980	0	0	0	 0.000
 169.386	 0.267	3	2	0	 2147483.647
 169.653	 0.268	3	0	0	 0.000
 169.921	 0.287	3	0	0	 0.000
 170.208	 0.268	3	0	0	 0.000
 170.476	 1.492	0	0	0	 0.000
 171.968	 2.047	8	0	0	 0.000
 174.015	 1.358	0	0	0	 0.000
 175.373	 0.267	9	0	0	 0.000
 175.640	 0.268	9	0	0	 0.000
 175.908	 0.267	9	0	0	 0.000
 176.175	 0.288	9	0	0	 0.000
 176.463	 1.692	0	0	0	 0.000
 178.155	 2.047	4	2	0	 2147483.647
 180.202	 1.357	0	0	0	 0.000
 181.559	 0.268	7	0	0	 0.000
 181.827	 0.268	7	0	0	 0.000
 182.095	 0.287	7	0	0	 0.000
 182.382	 0.268	7	0	0	 0.000
 182.650	 1.291	0	0	0	 0.000
 183.941	 0.133	1	0	0	 0.000
 184.074	 0.134	1	0	0	 0.000
 184.208	 0.134	1	0	0	 0.000
 184.342	 0.134	1	0	0	 0.000
 184.476	 0.133	1	0	0	 0.000
 184.609	 0.134	1	0	0	 0.000
 184.743	 0.154	1	0	0	 0.000
 184.897	 0.134	1	0	0	 0.000
 185.031	 0.134	1	0	0	 0.000
 185.165	 0.133	1	0	0	 0.000
 185.298	 0.134	1	0	0	 0.000
 185.432	 0.134	1	0	0	 0.000
 185.566	 1.424	0	0	0	 0.000
 186.990	 3.071	0	0	0	 0.000
 190.061	 3.405	0	0	0	 0.000
 193.466	 2.448	0	0	0	 0.000
 195.914	 0.134	1	0	0	 0.000
 196.048	 0.133	1	0	0	 0.000
 196.181	 0.134	1	0	0	 0.000
 196.315	 0.134	1	0	0	 0.000
 196.449	 0.134	1	0	0	 0.000
 196.583	 0.133	1	0	0	 0.000
 196.716	 0.134	1	0	0	 0.000
 196.850	 0.134	1	0	0	 0.000
 196.984	 0.154	1	0	0	 0.000
 197.138	 0.134	1	0	0	 0.000
 197.272	 0.133	1	0	0	 0.000
 197.405	 0.134	1	0	0	 0.000
 197.539	 1.759	0	0	0	 0.000
 199.298	 0.288	7	0	0	 0.000
 199.586	 0.267	7	0	0	 0.000
 199.853	 0.268	7	0	0	 0.000
 200.121	 0.267	7	0	0	 0.000
 200.388	 2.314	0	0	0	 0.000
 202.702	 0.268	9	0	0	 0.000
 202.970	 0.288	9	0	0	 0.000
 203.258	 0.267	9	0	0	 0.000
 203.525	 0.268	9	0	0	 0.000
 203.793	 1.980	0	0	0	 0.000
 205.773	 2.027	8	0	0	 0.000
 207.800	 1.023	0	0	0	 0.000
 208.823	 2.047	8	0	0	 0.000
 210.870	 0.736	0	0	0	 0.000
 211.606	 0.154	2	0	0	 0.000
 211.760	 0.133	2	0	0	 0.000
 211.893	 0.134	2	0	0	 0.000
 212.027	 0.134	2	0	0	 0.000
 212.161	 0.134	2	0	0	 0.000
 212.295	 0.133	2	0	0	 0.000
 212.428	 0.134	2	0	0	 0.000
 212.562	 0.134	2	0	0	 0.000
 212.696	 0.134	2	0	0	 0.000
 212.830	 0.154	2	0	0	 0.000
 212.984	 0.133	2	0	0	 0.000
 213.117	 0.134	2	0	0	 0.000
 213.251	 1.759	0	0	0	 0.000
 215.010	 0.134	2	0	0	 0.000
 215.144	 0.134	2	0	0	 0.000
 215.278	 0.154	2	0	0	 0.000
 215.432	 0.133	2	0	0	 0.000
 215.565	 0.134	2	0	0	 0.000
 215.699	 0.134	2	0	0	 0.000
 215.833	 0.134	2	0	0	 0.000
 215.967	 0.133	2	0	0	 0.000
 216.100	 0.134	2	0	0	 0.000
 216.234	 0.134	2	0	0	 0.000
 216.368	 0.134	2	0	0	 0.000
 216.502	 0.154	2	0	0	 0.000
 216.656	 1.424	0	0	0	 0.000
 218.080	 0.134	2	0	0	 0.000
 218.214	 0.134	2	0	0	 0.000
 218.348	 0.133	2	0	0	 0.000
 218.481	 0.134	2	0	0	 0.000
 218.615	 0.134	2	0	0	 0.000
 218.749	 0.134	2	0	0	 0.000
 218.883	 0.133	2	0	0	 0.000
 219.016	 0.154	2	0	0	 0.000
 219.170	 0.134	2	0	0	 0.000
 219.304	 0.134	2	0	0	 0.000
 219.438	 0.134	2	0	0	 0.000
 219.572	 0.133	2	0	0	 0.000
 219.705	 1.157	0	0	0	 0.000
 220.862	 2.047	6	4	0	 2147483.647
 222.909	 1.004	0	0	0	 0.000
 223.913	 2.047	6	4	0	 2147483.647
 225.960	 1.023	0	0	0	 0.000
 226.983	 0.134	1	0	0	 0.000
 227.117	 0.134	1	0	0	 0.000
 227.251	 0.134	1	0	0	 0.000
 227.385	 0.133	1	0	0	 0.000
 227.518	 0.154	1	0	0	 0.000
 227.672	 0.134	1	0	0	 0.000
 227.806	 0.134	1	0	0	 0.000
 227.940	 0.134	1	0	0	 0.000
 228.074	 0.133	1	0	0	 0.000
 228.207	 0.134	1	0	0	 0.000
 228.341	 0.134	1	0	0	 0.000
 228.475	 0.134	1	0	0	 0.000
 228.609	 1.157	0	0	0	 0.000
 229.766	 2.046	8	0	0	 0.000
 231.812	 1.358	0	0	0	 0.000
 233.170	 0.134	1	0	0	 0.000
 233.304	 0.134	1	0	0	 0.000
 233.438	 0.133	1	0	0	 0.000
 233.571	 0.134	1	0	0	 0.000
 233.705	 0.154	1	0	0	 0.000
 233.859	 0.134	1	0	0	 0.000
 233.993	 0.134	1	0	0	 0.000
 234.127	 0.133	1	0	0	 0.000
 234.260	 0.134	1	0	0	 0.000
 234.394	 0.134	1	0	0	 0.000
 234.528	 0.134	1	0	0	 0.000
 234.662	 0.133	1	0	0	 0.000
 234.795	 1.445	0	0	0	 0.000
 236.240	 0.268	5	4	0	 2147483.647
 236.508	 0.267	5	0	0	 0.000
 236.775	 0.268	5	0	0	 0.000
 237.043	 0.267	5	0	0	 0.000
 237.310	 1.291	0	0	0	 0.000
 238.601	 0.288	3	2	0	 2147483.647
 238.889	 0.267	3	0	0	 0.000
 239.156	 0.268	3	0	0	 0.000
 239.424	 0.267	3	0	0	 0.000
 239.691	 2.316	0	0	0	 0.000
 242.007	 2.046	8	0	0	 0.000
 244.053	 0.756	0	0	0	 0.000
 244.809	 2.027	10	0	0	 0.000
 246.836	 1.357	0	0	0	 0.000
 248.193	 3.070	0	0	0	 0.000
 251.263	 3.050	0	0	0	 0.000
 254.313	 0.288	9	0	0	 0.000
 254.601	 0.267	9	0	0	 0.000
 254.868	 0.268	9	0	0	 0.000
 255.136	 0.267	9	0	0	 0.000
 255.403	 1.358	0	0	0	 0.000
 256.761	 0.134	1	0	0	 0.000
 256.895	 0.154	1	0	0	 0.000
 257.049	 0.134	1	0	0	 0.000
 257.183	 0.133	1	0	0	 0.000
 257.316	 0.134	1	0	0	 0.000
 257.450	 0.134	1	0	0	 0.000
 257.584	 0.134	1	0	0	 0.000
 257.718	 0.133	1	0	0	 0.000
 257.851	 0.134	1	0	0	 0.000
 257.985	 0.134	1	0	0	 0.000
 258.119	 0.155	1	0	0	 0.000
 258.274	 0.133	1	0	0	 0.000
 258.407	 1.759	0	0	0	 0.000
 260.166	 0.268	7	0	0	 0.000
 260.434	 0.288	7	0	0	 0.000
 260.722	 0.267	7	0	0	 0.000
 260.989	 0.268	7	0	0	 0.000
 261.257	 1.291	0	0	0	 0.000
 262.548	 2.046	4	2	0	 2147483.647
 264.594	 0.736	0	0	0	 0.000
 265.330	 2.047	4	2	0	 2147483.647
 267.377	 1.023	0	0	0	 0.000
 268.400	 2.026	8	0	0	 0.000
 270.426	 1.646	0	0	0	 0.000
 272.072	 0.134	2	0	0	 0.000
 272.206	 0.133	2	0	0	 0.000
 272.339	 0.134	2	0	0	 0.000
 272.473	 0.134	2	0	0	 0.000
 272.607	 0.134	2	0	0	 0.000
 272.741	 0.133	2	0	0	 0.000
 272.874	 0.154	2	0	0	 0.000
 273.028	 0.134	2	0	0	 0.000
 273.162	 0.134	2	0	0	 0.000
 273.296	 0.134	2	0	0	 0.000
 273.430	 0.133	2	0	0	 0.000
 273.563	 0.134	2	0	0	 0.000
 273.697	 1.157	0	0	0	 0.000
 274.854	 0.134	1	0	0	 0.000
 274.988	 0.134	1	0	0	 0.000
 275.122	 0.133	1	0	0	 0.000
 275.255	 0.154	1	0	0	 0.000
 275.409	 0.134	1	0	0	 0.000
 275.543	 0.135	1	0	0	 0.000
 275.678	 0.134	1	0	0	 0.000
 275.812	 0.133	1	0	0	 0.000
 275.945	 0.134	1	0	0	 0.000
 276.079	 0.134	1	0	0	 0.000
 276.213	 0.134	1	0	0	 0.000
 276.347	 0.133	1	0	0	 0.000
 276.480	 1.445	0	0	0	 0.000
 277.925	 0.134	1	0	0	 0.000
 278.059	 0.134	1	0	0	 0.000
 278.193	 0.133	1	0	0	 0.000
 278.326	 0.134	1	0	0	 0.000
 278.460	 0.134	1	0	0	 0.000
 278.594	 0.134	1	0	0	 0.000
 278.728	 0.134	1	0	0	 0.000
 278.862	 0.133	1	0	0	 0.000
 278.995	 0.154	1	0	0	 0.000
 279.149	 0.134	1	0	0	 0.000
 279.283	 0.134	1	0	0	 0.000
 279.417	 0.133	1	0	0	 0.000
 279.550	 1.425	0	0	0	 0.000
 280.975	 2.782	0	0	0	 0.000
 283.757	 0.288	5	4	0	 2147483.647
 284.045	 0.268	5	0	0	 0.000
 284.313	 0.267	5	0	0	 0.000
 284.580	 0.268	5	0	0	 0.000
 284.848	 1.291	0	0	0	 0.000
 286.139	 0.133	2	0	0	 0.000
 286.272	 0.154	2	0	0	 0.000
 286.426	 0.134	2	0	0	 0.000
 286.560	 0.134	2	0	0	 0.000
 286.694	 0.133	2	0	0	 0.000
 286.827	 0.134	2	0	0	 0.000
 286.961	 0.134	2	0	0	 0.000
 287.095	 0.134	2	0	0	 0.000
 287.229	 0.133	2	0	0	 0.000
 287.362	 0.134	2	0	0	 0.000
 287.496	 0.154	2	0	0	 0.000
 287.650	 0.134	2	0	0	 0.000
 287.784	 1.759	0	0	0	 0.000
 289.543	 2.782	0	0	0	 0.000
 292.325	 2.048	10	0	0	 0.000
 294.373	 1.625	0	0	0	 0.000
 295.998	 0.288	9	0	0	 0.000
 296.286	 0.267	9	0	0	 0.000
 296.553	 0.268	9	0	0	 0.000
 296.821	 0.267	9	0	0	 0.000
 297.088	 1.291	0	0	0	 0.000
 298.379	 0.288	5	0	0	 0.000
 298.667	 0.267	5	0	0	 0.000
 298.934	 0.268	5	0	0	 0.000
 299.202	 0.268	5	0	0	 0.000
 299.470	 1.357	5	4	0	 2147483.647
 300.827	 2.047	10	0	0	 0.000
 302.874	 1.625	0	0	0	 0.000
 304.499	 2.047	10	0	0	 0.000
 306.546	 6.528	0	0	0	 0.000
