onset	duration	trial_type	expected_response	given_response	response_time
 0.000	 4.073	Filler	0	0	 0.000
 4.073	 0.669	ISI	0	0	 0.000
 4.742	 0.355	Croix	0	0	 0.000
 5.097	 0.668	Noir	0	0	 0.000
 5.765	 0.689	pseudocomplex	1	0	 2147483.647
 6.454	 0.736	ISI	0	0	 0.000
 7.190	 0.355	croix	0	0	 0.000
 7.545	 0.668	Noir	0	0	 0.000
 8.213	 0.689	H	0	0	 0.000
 8.902	 0.602	ISI	0	0	 0.000
 9.504	 0.355	croix	0	0	 0.000
 9.859	 0.669	Noir	0	0	 0.000
 10.528	 0.689	complex	1	0	 2147483.647
 11.217	 0.602	ISI	0	0	 0.000
 11.819	 0.335	croix	0	0	 0.000
 12.154	 0.689	Noir	0	0	 0.000
 12.843	 0.689	complex	1	0	 2147483.647
 13.532	 0.869	ISI	0	0	 0.000
 14.401	 0.355	croix	0	0	 0.000
 14.756	 0.669	Noir	0	0	 0.000
 15.425	 0.688	complex	1	0	 2147483.647
 16.113	 0.736	ISI	0	0	 0.000
 16.849	 0.355	croix	0	0	 0.000
 17.204	 0.668	Noir	0	0	 0.000
 17.872	 0.689	H	0	0	 0.000
 18.561	 0.602	ISI	0	0	 0.000
 19.163	 0.335	croix	0	0	 0.000
 19.498	 0.689	Noir	0	0	 0.000
 20.187	 0.689	pseudocomplex	1	0	 2147483.647
 20.876	 0.602	ISI	0	0	 0.000
 21.478	 0.334	croix	0	0	 0.000
 21.812	 0.689	Noir	0	0	 0.000
 22.501	 0.669	complex	1	0	 2147483.647
 23.170	 0.555	ISI	0	0	 0.000
 23.725	 0.334	croix	0	0	 0.000
 24.059	 0.689	Noir	0	0	 0.000
 24.748	 0.669	H	0	0	 0.000
 25.417	 0.622	ISI	0	0	 0.000
 26.039	 0.334	croix	0	0	 0.000
 26.373	 0.689	Noir	0	0	 0.000
 27.062	 0.669	complex	1	0	 2147483.647
 27.731	 0.756	ISI	0	0	 0.000
 28.487	 0.334	croix	0	0	 0.000
 28.821	 0.690	Noir	0	0	 0.000
 29.511	 0.669	pseudocomplex	1	0	 2147483.647
 30.180	 0.957	ISI	0	0	 0.000
 31.137	 0.334	croix	0	0	 0.000
 31.471	 0.689	Noir	0	0	 0.000
 32.160	 0.669	pseudocomplex	1	0	 2147483.647
 32.829	 0.756	ISI	0	0	 0.000
 33.585	 0.334	croix	0	0	 0.000
 33.919	 0.689	Noir	0	0	 0.000
 34.608	 0.669	complex	1	0	 2147483.647
 35.277	 0.555	ISI	0	0	 0.000
 35.832	 0.334	croix	0	0	 0.000
 36.166	 0.689	Noir	0	0	 0.000
 36.855	 0.669	H	0	0	 0.000
 37.524	 0.756	ISI	0	0	 0.000
 38.280	 0.334	croix	0	0	 0.000
 38.614	 0.689	Noir	0	0	 0.000
 39.303	 0.669	complex	1	0	 2147483.647
 39.972	 0.823	ISI	0	0	 0.000
 40.795	 0.334	croix	0	0	 0.000
 41.129	 0.689	Noir	0	0	 0.000
 41.818	 0.669	pseudocomplex	1	0	 2147483.647
 42.487	 0.555	ISI	0	0	 0.000
 43.042	 0.334	croix	0	0	 0.000
 43.376	 0.689	Noir	0	0	 0.000
 44.065	 0.669	H	0	0	 0.000
 44.734	 0.689	ISI	0	0	 0.000
 45.423	 0.334	croix	0	0	 0.000
 45.757	 0.669	Noir	0	0	 0.000
 46.426	 0.690	pseudocomplex	1	0	 2147483.647
 47.116	 0.535	ISI	0	0	 0.000
 47.651	 0.355	croix	0	0	 0.000
 48.006	 0.669	Noir	0	0	 0.000
 48.675	 0.688	complex	1	0	 2147483.647
 49.363	 0.602	ISI	0	0	 0.000
 49.965	 0.355	croix	0	0	 0.000
 50.320	 0.669	Noir	0	0	 0.000
 50.989	 0.689	complex	1	0	 2147483.647
 51.678	 0.602	ISI	0	0	 0.000
 52.280	 0.354	croix	0	0	 0.000
 52.634	 0.669	Noir	0	0	 0.000
 53.303	 0.689	pseudocomplex	1	0	 2147483.647
 53.992	 0.602	ISI	0	0	 0.000
 54.594	 0.334	croix	0	0	 0.000
 54.928	 0.689	Noir	0	0	 0.000
 55.617	 0.689	complex	1	0	 2147483.647
 56.306	 0.535	ISI	0	0	 0.000
 56.841	 0.335	croix	0	0	 0.000
 57.176	 0.688	Noir	0	0	 0.000
 57.864	 0.669	H	0	0	 0.000
 58.533	 0.756	ISI	0	0	 0.000
 59.289	 0.334	croix	0	0	 0.000
 59.623	 0.689	Noir	0	0	 0.000
 60.312	 0.669	complex	1	0	 2147483.647
 60.981	 0.622	ISI	0	0	 0.000
 61.603	 0.335	croix	0	0	 0.000
 61.938	 0.689	Noir	0	0	 0.000
 62.627	 0.668	H	0	0	 0.000
 63.295	 0.689	ISI	0	0	 0.000
 63.984	 0.336	croix	0	0	 0.000
 64.320	 0.689	Noir	0	0	 0.000
 65.009	 0.668	complex	1	0	 2147483.647
 65.677	 0.823	ISI	0	0	 0.000
 66.500	 0.335	croix	0	0	 0.000
 66.835	 0.689	Noir	0	0	 0.000
 67.524	 0.668	pseudocomplex	1	0	 2147483.647
 68.192	 0.555	ISI	0	0	 0.000
 68.747	 0.335	croix	0	0	 0.000
 69.082	 0.689	Noir	0	0	 0.000
 69.771	 0.669	complex	1	0	 2147483.647
 70.440	 0.755	ISI	0	0	 0.000
 71.195	 0.335	croix	0	0	 0.000
 71.530	 0.689	Noir	0	0	 0.000
 72.219	 0.669	pseudocomplex	1	0	 2147483.647
 72.888	 0.822	ISI	0	0	 0.000
 73.710	 0.335	croix	0	0	 0.000
 74.045	 0.689	Noir	0	0	 0.000
 74.734	 0.668	complex	1	0	 2147483.647
 75.402	 0.622	ISI	0	0	 0.000
 76.024	 0.335	croix	0	0	 0.000
 76.359	 0.669	Noir	0	0	 0.000
 77.028	 0.689	H	0	0	 0.000
 77.717	 0.535	ISI	0	0	 0.000
 78.252	 0.354	croix	0	0	 0.000
 78.606	 0.669	Noir	0	0	 0.000
 79.275	 0.689	complex	1	0	 2147483.647
 79.964	 0.535	ISI	0	0	 0.000
 80.499	 0.354	croix	0	0	 0.000
 80.853	 0.669	Noir	0	0	 0.000
 81.522	 0.690	pseudocomplex	1	0	 2147483.647
 82.212	 0.602	ISI	0	0	 0.000
 82.814	 0.335	croix	0	0	 0.000
 83.149	 0.688	Noir	0	0	 0.000
 83.837	 0.689	H	0	0	 0.000
 84.526	 0.870	ISI	0	0	 0.000
 85.396	 0.354	croix	0	0	 0.000
 85.750	 0.669	Noir	0	0	 0.000
 86.419	 0.689	pseudocomplex	1	0	 2147483.647
 87.108	 0.602	ISI	0	0	 0.000
 87.710	 0.334	croix	0	0	 0.000
 88.044	 0.689	Noir	0	0	 0.000
 88.733	 0.689	H	0	0	 0.000
 89.422	 0.669	ISI	0	0	 0.000
 90.091	 0.335	croix	0	0	 0.000
 90.426	 0.688	Noir	0	0	 0.000
 91.114	 0.689	complex	1	0	 2147483.647
 91.803	 0.736	ISI	0	0	 0.000
 92.539	 0.334	croix	0	0	 0.000
 92.873	 0.689	Noir	0	0	 0.000
 93.562	 0.689	pseudocomplex	1	0	 2147483.647
 94.251	 0.535	ISI	0	0	 0.000
 94.786	 0.335	croix	0	0	 0.000
 95.121	 0.689	Noir	0	0	 0.000
 95.810	 0.669	complex	1	0	 2147483.647
 96.479	 1.157	ISI	0	0	 0.000
 97.636	 0.354	croix	0	0	 0.000
 97.990	 0.669	Noir	0	0	 0.000
 98.659	 0.690	pseudocomplex	1	0	 2147483.647
 99.349	 0.936	ISI	0	0	 0.000
 100.285	 0.355	croix	0	0	 0.000
 100.640	 0.669	Noir	0	0	 0.000
 101.309	 0.688	pseudocomplex	1	0	 2147483.647
 101.997	 0.602	ISI	0	0	 0.000
 102.599	 0.355	croix	0	0	 0.000
 102.954	 0.669	Noir	0	0	 0.000
 103.623	 0.689	pseudocomplex	1	0	 2147483.647
 104.312	 1.692	ISI	0	0	 0.000
 106.004	 0.334	croix	0	0	 0.000
 106.338	 0.689	Noir	0	0	 0.000
 107.027	 0.689	H	0	0	 0.000
 107.716	 0.870	ISI	0	0	 0.000
 108.586	 0.354	croix	0	0	 0.000
 108.940	 0.669	Noir	0	0	 0.000
 109.609	 0.689	pseudocomplex	1	0	 2147483.647
 110.298	 0.669	ISI	0	0	 0.000
 110.967	 0.334	croix	0	0	 0.000
 111.301	 0.689	Noir	0	0	 0.000
 111.990	 0.689	pseudocomplex	1	0	 2147483.647
 112.679	 0.602	ISI	0	0	 0.000
 113.281	 0.334	croix	0	0	 0.000
 113.615	 0.689	Noir	0	0	 0.000
 114.304	 0.669	pseudocomplex	1	0	 2147483.647
 114.973	 0.555	ISI	0	0	 0.000
 115.528	 0.335	croix	0	0	 0.000
 115.863	 0.688	Noir	0	0	 0.000
 116.551	 0.670	H	0	0	 0.000
 117.221	 0.756	ISI	0	0	 0.000
 117.977	 0.334	croix	0	0	 0.000
 118.311	 0.689	Noir	0	0	 0.000
 119.000	 0.669	pseudocomplex	1	0	 2147483.647
 119.669	 1.291	ISI	0	0	 0.000
 120.960	 0.355	croix	0	0	 0.000
 121.315	 0.668	Noir	0	0	 0.000
 121.983	 0.689	complex	1	0	 2147483.647
 122.672	 0.736	ISI	0	0	 0.000
 123.408	 0.355	croix	0	0	 0.000
 123.763	 0.668	Noir	0	0	 0.000
 124.431	 0.689	pseudocomplex	1	0	 2147483.647
 125.120	 0.736	ISI	0	0	 0.000
 125.856	 0.355	croix	0	0	 0.000
 126.211	 0.668	Noir	0	0	 0.000
 126.879	 0.689	complex	1	0	 2147483.647
 127.568	 0.535	ISI	0	0	 0.000
 128.103	 0.335	croix	0	0	 0.000
 128.438	 0.689	Noir	0	0	 0.000
 129.127	 0.689	H	0	0	 0.000
 129.816	 0.668	ISI	0	0	 0.000
 130.484	 0.335	croix	0	0	 0.000
 130.819	 0.689	Noir	0	0	 0.000
 131.508	 0.689	pseudocomplex	1	0	 2147483.647
 132.197	 0.802	ISI	0	0	 0.000
 132.999	 0.335	croix	0	0	 0.000
 133.334	 0.689	Noir	0	0	 0.000
 134.023	 0.689	complex	1	0	 2147483.647
 134.712	 0.602	ISI	0	0	 0.000
 135.314	 0.335	croix	0	0	 0.000
 135.649	 0.689	Noir	0	0	 0.000
 136.338	 0.669	H	0	0	 0.000
 137.007	 0.555	ISI	0	0	 0.000
 137.562	 0.334	croix	0	0	 0.000
 137.896	 0.689	Noir	0	0	 0.000
 138.585	 0.669	pseudocomplex	1	0	 2147483.647
 139.254	 0.622	ISI	0	0	 0.000
 139.876	 0.334	croix	0	0	 0.000
 140.210	 0.689	Noir	0	0	 0.000
 140.899	 0.669	complex	1	0	 2147483.647
 141.568	 0.890	ISI	0	0	 0.000
 142.458	 0.334	croix	0	0	 0.000
 142.792	 0.689	Noir	0	0	 0.000
 143.481	 0.669	pseudocomplex	1	0	 2147483.647
 144.150	 0.689	ISI	0	0	 0.000
 144.839	 0.334	croix	0	0	 0.000
 145.173	 0.689	Noir	0	0	 0.000
 145.862	 0.669	H	0	0	 0.000
 146.531	 0.689	ISI	0	0	 0.000
 147.220	 0.334	croix	0	0	 0.000
 147.554	 0.689	Noir	0	0	 0.000
 148.243	 0.669	pseudocomplex	1	0	 2147483.647
 148.912	 0.756	ISI	0	0	 0.000
 149.668	 0.334	croix	0	0	 0.000
 150.002	 0.689	Noir	0	0	 0.000
 150.691	 0.669	complex	1	0	 2147483.647
 151.360	 0.757	ISI	0	0	 0.000
 152.117	 0.334	croix	0	0	 0.000
 152.451	 0.689	Noir	0	0	 0.000
 153.140	 0.669	complex	1	0	 2147483.647
 153.809	 0.622	ISI	0	0	 0.000
 154.431	 0.334	croix	0	0	 0.000
 154.765	 0.689	Noir	0	0	 0.000
 155.454	 0.669	H	0	0	 0.000
 156.123	 0.622	ISI	0	0	 0.000
 156.745	 0.334	croix	0	0	 0.000
 157.079	 0.669	Noir	0	0	 0.000
 157.748	 0.689	pseudocomplex	1	0	 2147483.647
 158.437	 0.689	ISI	0	0	 0.000
 159.126	 0.335	croix	0	0	 0.000
 159.461	 0.668	Noir	0	0	 0.000
 160.129	 0.689	pseudocomplex	1	0	 2147483.647
 160.818	 0.669	ISI	0	0	 0.000
 161.487	 0.355	croix	0	0	 0.000
 161.842	 0.668	Noir	0	0	 0.000
 162.510	 0.689	complex	1	0	 2147483.647
 163.199	 0.602	ISI	0	0	 0.000
 163.801	 0.355	croix	0	0	 0.000
 164.156	 0.669	Noir	0	0	 0.000
 164.825	 0.689	complex	1	0	 2147483.647
 165.514	 0.535	ISI	0	0	 0.000
 166.049	 0.334	croix	0	0	 0.000
 166.383	 0.689	Noir	0	0	 0.000
 167.072	 0.689	H	0	0	 0.000
 167.761	 0.535	ISI	0	0	 0.000
 168.296	 0.334	croix	0	0	 0.000
 168.630	 0.690	Noir	0	0	 0.000
 169.320	 0.669	pseudocomplex	1	0	 2147483.647
 169.989	 0.622	ISI	0	0	 0.000
 170.611	 0.334	croix	0	0	 0.000
 170.945	 0.689	Noir	0	0	 0.000
 171.634	 0.669	H	0	0	 0.000
 172.303	 0.622	ISI	0	0	 0.000
 172.925	 0.335	croix	0	0	 0.000
 173.260	 0.689	Noir	0	0	 0.000
 173.949	 0.668	pseudocomplex	1	0	 2147483.647
 174.617	 0.622	ISI	0	0	 0.000
 175.239	 0.335	croix	0	0	 0.000
 175.574	 0.689	Noir	0	0	 0.000
 176.263	 0.669	pseudocomplex	1	0	 2147483.647
 176.932	 0.555	ISI	0	0	 0.000
 177.487	 0.334	croix	0	0	 0.000
 177.821	 0.669	Noir	0	0	 0.000
 178.490	 0.689	pseudocomplex	1	0	 2147483.647
 179.179	 0.823	ISI	0	0	 0.000
 180.002	 0.334	croix	0	0	 0.000
 180.336	 0.669	Noir	0	0	 0.000
 181.005	 0.689	pseudocomplex	1	0	 2147483.647
 181.694	 0.602	ISI	0	0	 0.000
 182.296	 0.354	croix	0	0	 0.000
 182.650	 0.669	Noir	0	0	 0.000
 183.319	 0.689	H	0	0	 0.000
 184.008	 0.669	ISI	0	0	 0.000
 184.677	 0.354	croix	0	0	 0.000
 185.031	 0.669	Noir	0	0	 0.000
 185.700	 0.689	pseudocomplex	1	0	 2147483.647
 186.389	 0.737	ISI	0	0	 0.000
 187.126	 0.354	croix	0	0	 0.000
 187.480	 0.669	Noir	0	0	 0.000
 188.149	 0.689	complex	1	0	 2147483.647
 188.838	 0.602	ISI	0	0	 0.000
 189.440	 0.354	croix	0	0	 0.000
 189.794	 0.669	Noir	0	0	 0.000
 190.463	 0.689	H	0	0	 0.000
 191.152	 0.736	ISI	0	0	 0.000
 191.888	 0.354	croix	0	0	 0.000
 192.242	 0.669	Noir	0	0	 0.000
 192.911	 0.689	complex	1	0	 2147483.647
 193.600	 0.602	ISI	0	0	 0.000
 194.202	 0.334	croix	0	0	 0.000
 194.536	 0.689	Noir	0	0	 0.000
 195.225	 0.689	complex	1	0	 2147483.647
 195.914	 0.535	ISI	0	0	 0.000
 196.449	 0.335	croix	0	0	 0.000
 196.784	 0.689	Noir	0	0	 0.000
 197.473	 0.668	pseudocomplex	1	0	 2147483.647
 198.141	 0.623	ISI	0	0	 0.000
 198.764	 0.334	croix	0	0	 0.000
 199.098	 0.689	Noir	0	0	 0.000
 199.787	 0.669	complex	1	0	 2147483.647
 200.456	 0.689	ISI	0	0	 0.000
 201.145	 0.334	croix	0	0	 0.000
 201.479	 0.689	Noir	0	0	 0.000
 202.168	 0.669	H	0	0	 0.000
 202.837	 0.889	ISI	0	0	 0.000
 203.726	 0.335	croix	0	0	 0.000
 204.061	 0.690	Noir	0	0	 0.000
 204.751	 0.668	complex	1	0	 2147483.647
 205.419	 0.556	ISI	0	0	 0.000
 205.975	 0.334	croix	0	0	 0.000
 206.309	 0.689	Noir	0	0	 0.000
 206.998	 0.669	complex	1	0	 2147483.647
 207.667	 0.822	ISI	0	0	 0.000
 208.489	 0.335	croix	0	0	 0.000
 208.824	 0.689	Noir	0	0	 0.000
 209.513	 0.669	H	0	0	 0.000
 210.182	 1.023	ISI	0	0	 0.000
 211.205	 0.334	croix	0	0	 0.000
 211.539	 0.689	Noir	0	0	 0.000
 212.228	 0.669	complex	1	0	 2147483.647
 212.897	 0.689	ISI	0	0	 0.000
 213.586	 0.334	croix	0	0	 0.000
 213.920	 0.689	Noir	0	0	 0.000
 214.609	 0.669	complex	1	0	 2147483.647
 215.278	 0.689	ISI	0	0	 0.000
 215.967	 0.334	croix	0	0	 0.000
 216.301	 0.689	Noir	0	0	 0.000
 216.990	 0.669	complex	1	0	 2147483.647
 217.659	 0.555	ISI	0	0	 0.000
 218.214	 0.335	croix	0	0	 0.000
 218.549	 0.689	Noir	0	0	 0.000
 219.238	 0.669	pseudocomplex	1	0	 2147483.647
 219.907	 0.555	ISI	0	0	 0.000
 220.462	 0.334	croix	0	0	 0.000
 220.796	 0.669	Noir	0	0	 0.000
 221.465	 0.690	H	0	0	 0.000
 222.155	 0.535	ISI	0	0	 0.000
 222.690	 0.354	croix	0	0	 0.000
 223.044	 0.669	Noir	0	0	 0.000
 223.713	 0.689	pseudocomplex	1	0	 2147483.647
 224.402	 0.823	ISI	0	0	 0.000
 225.225	 0.334	croix	0	0	 0.000
 225.559	 0.669	Noir	0	0	 0.000
 226.228	 0.689	pseudocomplex	1	0	 2147483.647
 226.917	 0.890	ISI	0	0	 0.000
 227.807	 0.334	croix	0	0	 0.000
 228.141	 0.669	Noir	0	0	 0.000
 228.810	 0.689	complex	1	0	 2147483.647
 229.499	 0.622	ISI	0	0	 0.000
 230.121	 0.334	croix	0	0	 0.000
 230.455	 0.669	Noir	0	0	 0.000
 231.124	 0.689	H	0	0	 0.000
 231.813	 0.535	ISI	0	0	 0.000
 232.348	 0.354	croix	0	0	 0.000
 232.702	 0.669	Noir	0	0	 0.000
 233.371	 0.689	pseudocomplex	1	0	 2147483.647
 234.060	 0.669	ISI	0	0	 0.000
 234.729	 0.355	croix	0	0	 0.000
 235.084	 0.668	Noir	0	0	 0.000
 235.752	 0.689	pseudocomplex	1	0	 2147483.647
 236.441	 0.669	ISI	0	0	 0.000
 237.110	 0.355	croix	0	0	 0.000
 237.465	 0.668	Noir	0	0	 0.000
 238.133	 0.689	pseudocomplex	1	0	 2147483.647
 238.822	 0.670	ISI	0	0	 0.000
 239.492	 0.335	croix	0	0	 0.000
 239.827	 0.689	Noir	0	0	 0.000
 240.516	 0.688	H	0	0	 0.000
 241.204	 0.736	ISI	0	0	 0.000
 241.940	 0.335	croix	0	0	 0.000
 242.275	 0.688	Noir	0	0	 0.000
 242.963	 0.689	pseudocomplex	1	0	 2147483.647
 243.652	 0.602	ISI	0	0	 0.000
 244.254	 0.335	croix	0	0	 0.000
 244.589	 0.689	Noir	0	0	 0.000
 245.278	 0.668	complex	1	0	 2147483.647
 245.946	 0.556	ISI	0	0	 0.000
 246.502	 0.334	croix	0	0	 0.000
 246.836	 0.689	Noir	0	0	 0.000
 247.525	 0.669	H	0	0	 0.000
 248.194	 0.756	ISI	0	0	 0.000
 248.950	 0.334	croix	0	0	 0.000
 249.284	 0.689	Noir	0	0	 0.000
 249.973	 0.669	pseudocomplex	1	0	 2147483.647
 250.642	 0.622	ISI	0	0	 0.000
 251.264	 0.334	croix	0	0	 0.000
 251.598	 0.689	Noir	0	0	 0.000
 252.287	 0.669	complex	1	0	 2147483.647
 252.956	 0.622	ISI	0	0	 0.000
 253.578	 0.334	croix	0	0	 0.000
 253.912	 0.689	Noir	0	0	 0.000
 254.601	 0.669	complex	1	0	 2147483.647
 255.270	 0.622	ISI	0	0	 0.000
 255.892	 0.335	croix	0	0	 0.000
 256.227	 0.669	Noir	0	0	 0.000
 256.896	 0.689	H	0	0	 0.000
 257.585	 0.602	ISI	0	0	 0.000
 258.187	 0.355	croix	0	0	 0.000
 258.542	 0.669	Noir	0	0	 0.000
 259.211	 0.689	complex	1	0	 2147483.647
 259.900	 0.601	ISI	0	0	 0.000
 260.501	 0.355	croix	0	0	 0.000
 260.856	 0.669	Noir	0	0	 0.000
 261.525	 0.689	pseudocomplex	1	0	 2147483.647
 262.214	 0.602	ISI	0	0	 0.000
 262.816	 0.354	croix	0	0	 0.000
 263.170	 0.669	Noir	0	0	 0.000
 263.839	 0.689	H	0	0	 0.000
 264.528	 0.802	ISI	0	0	 0.000
 265.330	 0.355	croix	0	0	 0.000
 265.685	 0.669	Noir	0	0	 0.000
 266.354	 0.689	complex	1	0	 2147483.647
 267.043	 0.535	ISI	0	0	 0.000
 267.578	 0.334	croix	0	0	 0.000
 267.912	 0.689	Noir	0	0	 0.000
 268.601	 0.689	pseudocomplex	1	0	 2147483.647
 269.290	 0.535	ISI	0	0	 0.000
 269.825	 0.334	croix	0	0	 0.000
 270.159	 0.689	Noir	0	0	 0.000
 270.848	 0.669	H	0	0	 0.000
 271.517	 0.689	ISI	0	0	 0.000
 272.206	 0.335	croix	0	0	 0.000
 272.541	 0.689	Noir	0	0	 0.000
 273.230	 0.668	complex	1	0	 2147483.647
 273.898	 0.556	ISI	0	0	 0.000
 274.454	 0.335	croix	0	0	 0.000
 274.789	 0.689	Noir	0	0	 0.000
 275.478	 0.669	complex	1	0	 2147483.647
 276.147	 0.555	ISI	0	0	 0.000
 276.702	 0.334	croix	0	0	 0.000
 277.036	 0.669	Noir	0	0	 0.000
 277.705	 0.689	H	0	0	 0.000
 278.394	 0.689	ISI	0	0	 0.000
 279.083	 0.334	croix	0	0	 0.000
 279.417	 0.669	Noir	0	0	 0.000
 280.086	 0.689	complex	1	0	 2147483.647
 280.775	 0.823	ISI	0	0	 0.000
 281.598	 0.334	croix	0	0	 0.000
 281.932	 0.669	Noir	0	0	 0.000
 282.601	 0.689	complex	1	0	 2147483.647
 283.290	 0.689	ISI	0	0	 0.000
 283.979	 0.334	croix	0	0	 0.000
 284.313	 0.669	Noir	0	0	 0.000
 284.982	 0.689	complex	1	0	 2147483.647
 285.671	 0.602	ISI	0	0	 0.000
 286.273	 0.354	croix	0	0	 0.000
 286.627	 0.669	Noir	0	0	 0.000
 287.296	 0.689	pseudocomplex	1	0	 2147483.647
 287.985	 0.602	ISI	0	0	 0.000
 288.587	 0.355	croix	0	0	 0.000
 288.942	 0.668	Noir	0	0	 0.000
 289.610	 0.689	H	0	0	 0.000
 290.299	 0.669	ISI	0	0	 0.000
 290.968	 0.355	croix	0	0	 0.000
 291.323	 0.669	Noir	0	0	 0.000
 291.992	 0.689	complex	1	0	 2147483.647
 292.681	 0.937	ISI	0	0	 0.000
 293.618	 0.354	croix	0	0	 0.000
 293.972	 0.669	Noir	0	0	 0.000
 294.641	 0.689	pseudocomplex	1	0	 2147483.647
 295.330	 0.669	ISI	0	0	 0.000
 295.999	 0.354	croix	0	0	 0.000
 296.353	 0.669	Noir	0	0	 0.000
 297.022	 0.689	pseudocomplex	1	0	 2147483.647
 297.711	 1.358	ISI	0	0	 0.000
 299.069	 0.334	croix	0	0	 0.000
 299.403	 0.689	Noir	0	0	 0.000
 300.092	 0.669	pseudocomplex	1	0	 2147483.647
 300.761	 0.889	ISI	0	0	 0.000
 301.650	 0.335	croix	0	0	 0.000
 301.985	 0.689	Noir	0	0	 0.000
 302.674	 0.669	H	0	0	 0.000
 303.343	 1.157	ISI	0	0	 0.000
 304.500	 0.354	croix	0	0	 0.000
 304.854	 0.669	Noir	0	0	 0.000
 305.523	 0.689	complex	1	0	 2147483.647
 306.212	 0.602	ISI	0	0	 0.000
 306.814	 0.334	croix	0	0	 0.000
 307.148	 0.689	Noir	0	0	 0.000
 307.837	 0.689	pseudocomplex	1	0	 2147483.647
 308.526	 0.737	ISI	0	0	 0.000
 309.263	 0.334	croix	0	0	 0.000
 309.597	 0.689	Noir	0	0	 0.000
 310.286	 0.689	H	0	0	 0.000
 310.975	 0.535	ISI	0	0	 0.000
 311.510	 0.335	croix	0	0	 0.000
 311.845	 0.689	Noir	0	0	 0.000
 312.534	 0.668	complex	1	0	 2147483.647
 313.202	 0.556	ISI	0	0	 0.000
 313.758	 0.334	croix	0	0	 0.000
 314.092	 0.689	Noir	0	0	 0.000
 314.781	 0.669	complex	1	0	 2147483.647
 315.450	 0.689	ISI	0	0	 0.000
 316.139	 0.334	croix	0	0	 0.000
 316.473	 0.689	Noir	0	0	 0.000
 317.162	 0.669	pseudocomplex	1	0	 2147483.647
 317.831	 0.622	ISI	0	0	 0.000
 318.453	 0.334	croix	0	0	 0.000
 318.787	 0.689	Noir	0	0	 0.000
 319.476	 0.669	complex	1	0	 2147483.647
 320.145	 0.622	ISI	0	0	 0.000
 320.767	 0.334	croix	0	0	 0.000
 321.101	 0.669	Noir	0	0	 0.000
 321.770	 0.689	H	0	0	 0.000
 322.459	 0.823	ISI	0	0	 0.000
 323.282	 0.334	croix	0	0	 0.000
 323.616	 0.669	Noir	0	0	 0.000
 324.285	 0.689	complex	1	0	 2147483.647
 324.974	 0.535	ISI	0	0	 0.000
 325.509	 0.355	croix	0	0	 0.000
 325.864	 0.669	Noir	0	0	 0.000
 326.533	 0.689	pseudocomplex	1	0	 2147483.647
 327.222	 0.602	ISI	0	0	 0.000
 327.824	 0.355	croix	0	0	 0.000
 328.179	 0.668	Noir	0	0	 0.000
 328.847	 0.689	pseudocomplex	1	0	 2147483.647
 329.536	 0.669	ISI	0	0	 0.000
 330.205	 4.080	Filler	0	0	 0.000
