onset	duration	trial_type	expected_response	given_response	response_time
 0.000	 4.073	0	0	0	 0.000
 4.073	 2.047	8	0	0	 0.000
 6.120	 0.401	0	0	0	 0.000
 6.521	 2.048	8	0	0	 0.000
 8.569	 1.358	0	0	0	 0.000
 9.927	 2.026	0	0	0	 0.000
 11.953	 0.134	1	0	0	 0.000
 12.087	 0.154	1	0	0	 0.000
 12.241	 0.134	1	0	0	 0.000
 12.375	 0.133	1	0	0	 0.000
 12.508	 0.134	1	0	0	 0.000
 12.642	 0.134	1	0	0	 0.000
 12.776	 0.134	1	0	0	 0.000
 12.910	 0.133	1	0	0	 0.000
 13.043	 0.134	1	0	0	 0.000
 13.177	 0.134	1	0	0	 0.000
 13.311	 0.154	1	0	0	 0.000
 13.465	 0.134	1	0	0	 0.000
 13.599	 1.157	0	0	0	 0.000
 14.756	 0.267	3	2	0	 2147483.647
 15.023	 0.268	3	0	0	 0.000
 15.291	 0.267	3	0	0	 0.000
 15.558	 0.268	3	0	0	 0.000
 15.826	 2.602	0	0	0	 0.000
 18.428	 2.026	10	0	0	 0.000
 20.454	 1.023	0	0	0	 0.000
 21.477	 0.268	5	4	0	 2147483.647
 21.745	 0.288	5	0	0	 0.000
 22.033	 0.267	5	0	0	 0.000
 22.300	 0.268	5	0	0	 0.000
 22.568	 1.692	0	1	0	 2147483.647
 24.260	 2.048	10	0	0	 0.000
 26.308	 1.023	0	0	0	 0.000
 27.331	 2.582	4	2	0	 2147483.647
 29.913	 0.468	0	0	0	 0.000
 30.381	 2.581	6	4	0	 2147483.647
 32.962	 0.489	0	0	0	 0.000
 33.451	 2.046	10	0	0	 0.000
 35.497	 1.358	0	0	0	 0.000
 36.855	 0.134	2	0	0	 0.000
 36.989	 0.134	2	0	0	 0.000
 37.123	 0.133	2	0	0	 0.000
 37.256	 0.134	2	0	0	 0.000
 37.390	 0.134	2	0	0	 0.000
 37.524	 0.134	2	0	0	 0.000
 37.658	 0.133	2	0	0	 0.000
 37.791	 0.154	2	0	0	 0.000
 37.945	 0.134	2	0	0	 0.000
 38.079	 0.134	2	0	0	 0.000
 38.213	 0.134	2	0	0	 0.000
 38.347	 0.133	2	0	0	 0.000
 38.480	 0.823	0	0	0	 0.000
 39.303	 0.268	7	0	0	 0.000
 39.571	 0.267	7	0	0	 0.000
 39.838	 0.268	7	0	0	 0.000
 40.106	 0.287	7	0	0	 0.000
 40.393	 2.583	0	0	0	 0.000
 42.976	 0.268	9	0	0	 0.000
 43.244	 0.267	9	0	0	 0.000
 43.511	 0.268	9	0	0	 0.000
 43.779	 0.287	9	0	0	 0.000
 44.066	 1.070	0	0	0	 0.000
 45.136	 0.288	9	0	0	 0.000
 45.424	 0.268	9	0	0	 0.000
 45.692	 0.267	9	0	0	 0.000
 45.959	 0.268	9	0	0	 0.000
 46.227	 1.979	0	0	0	 0.000
 48.206	 0.268	7	0	0	 0.000
 48.474	 0.267	7	0	0	 0.000
 48.741	 0.288	7	0	0	 0.000
 49.029	 0.268	7	0	0	 0.000
 49.297	 2.314	0	0	0	 0.000
 51.611	 0.267	7	0	0	 0.000
 51.878	 0.268	7	0	0	 0.000
 52.146	 0.267	7	0	0	 0.000
 52.413	 0.288	7	0	0	 0.000
 52.701	 1.692	0	0	0	 0.000
 54.393	 3.050	0	0	0	 0.000
 57.443	 2.803	0	0	0	 0.000
 60.246	 0.268	9	0	0	 0.000
 60.514	 0.268	9	0	0	 0.000
 60.782	 0.267	9	0	0	 0.000
 61.049	 0.288	9	0	0	 0.000
 61.337	 2.581	0	0	0	 0.000
 63.918	 0.134	1	0	0	 0.000
 64.052	 0.134	1	0	0	 0.000
 64.186	 0.134	1	0	0	 0.000
 64.320	 0.133	1	0	0	 0.000
 64.453	 0.134	1	0	0	 0.000
 64.587	 0.134	1	0	0	 0.000
 64.721	 0.154	1	0	0	 0.000
 64.875	 0.134	1	0	0	 0.000
 65.009	 0.133	1	0	0	 0.000
 65.142	 0.134	1	0	0	 0.000
 65.276	 0.134	1	0	0	 0.000
 65.410	 0.134	1	0	0	 0.000
 65.544	 1.157	0	0	0	 0.000
 66.701	 3.672	4	2	0	 2147483.647
 70.373	 3.070	0	0	0	 0.000
 73.443	 0.267	5	4	0	 2147483.647
 73.710	 0.268	5	0	0	 0.000
 73.978	 0.267	5	0	0	 0.000
 74.245	 0.268	5	0	0	 0.000
 74.513	 1.378	0	0	0	 0.000
 75.891	 2.027	6	4	0	 2147483.647
 77.918	 1.646	0	0	0	 0.000
 79.564	 0.267	9	0	0	 0.000
 79.831	 0.268	9	0	0	 0.000
 80.099	 0.267	9	0	0	 0.000
 80.366	 0.268	9	0	0	 0.000
 80.634	 1.979	0	0	0	 0.000
 82.613	 2.448	0	0	0	 0.000
 85.061	 3.070	0	0	0	 0.000
 88.131	 0.268	7	0	0	 0.000
 88.399	 0.267	7	0	0	 0.000
 88.666	 0.268	7	0	0	 0.000
 88.934	 0.267	7	0	0	 0.000
 89.201	 2.602	0	0	0	 0.000
 91.803	 0.268	3	2	0	 2147483.647
 92.071	 0.267	3	0	0	 0.000
 92.338	 0.268	3	0	0	 0.000
 92.606	 0.267	3	0	0	 0.000
 92.873	 1.714	0	0	0	 0.000
 94.587	 3.404	10	0	0	 0.000
 97.991	 3.050	0	0	0	 0.000
 101.041	 0.134	2	0	0	 0.000
 101.175	 0.133	2	0	0	 0.000
 101.308	 0.134	2	0	0	 0.000
 101.442	 0.154	2	0	0	 0.000
 101.596	 0.134	2	0	0	 0.000
 101.730	 0.134	2	0	0	 0.000
 101.864	 0.133	2	0	0	 0.000
 101.997	 0.134	2	0	0	 0.000
 102.131	 0.134	2	0	0	 0.000
 102.265	 0.134	2	0	0	 0.000
 102.399	 0.133	2	0	0	 0.000
 102.532	 0.134	2	0	0	 0.000
 102.666	 1.445	0	0	0	 0.000
 104.111	 3.050	0	0	0	 0.000
 107.161	 3.070	0	0	0	 0.000
 110.231	 3.051	0	0	0	 0.000
 113.282	 0.267	7	0	0	 0.000
 113.549	 0.288	7	0	0	 0.000
 113.837	 0.267	7	0	0	 0.000
 114.104	 0.268	7	0	0	 0.000
 114.372	 1.358	0	0	0	 0.000
 115.730	 3.404	0	0	0	 0.000
 119.134	 3.050	0	0	0	 0.000
 122.184	 2.047	6	4	0	 2147483.647
 124.231	 0.755	0	0	0	 0.000
 124.986	 2.027	10	0	0	 0.000
 127.013	 1.358	0	0	0	 0.000
 128.371	 0.154	2	0	0	 0.000
 128.525	 0.133	2	0	0	 0.000
 128.658	 0.134	2	0	0	 0.000
 128.792	 0.134	2	0	0	 0.000
 128.926	 0.134	2	0	0	 0.000
 129.060	 0.133	2	0	0	 0.000
 129.193	 0.135	2	0	0	 0.000
 129.328	 0.134	2	0	0	 0.000
 129.462	 0.134	2	0	0	 0.000
 129.596	 0.154	2	0	0	 0.000
 129.750	 0.133	2	0	0	 0.000
 129.883	 0.134	2	0	0	 0.000
 130.017	 1.291	0	0	0	 0.000
 131.308	 2.027	8	0	0	 0.000
 133.335	 1.645	0	0	0	 0.000
 134.980	 2.448	0	0	0	 0.000
 137.428	 0.267	9	0	0	 0.000
 137.695	 0.268	9	0	0	 0.000
 137.963	 0.267	9	0	0	 0.000
 138.230	 0.288	9	0	0	 0.000
 138.518	 2.582	0	0	0	 0.000
 141.100	 0.267	7	0	0	 0.000
 141.367	 0.268	7	0	0	 0.000
 141.635	 0.267	7	0	0	 0.000
 141.902	 0.288	7	0	0	 0.000
 142.190	 1.692	0	0	0	 0.000
 143.882	 0.268	7	0	0	 0.000
 144.150	 0.287	7	0	0	 0.000
 144.437	 0.268	7	0	0	 0.000
 144.705	 0.267	7	0	0	 0.000
 144.972	 1.693	0	0	0	 0.000
 146.665	 0.134	2	0	0	 0.000
 146.799	 0.154	2	0	0	 0.000
 146.953	 0.134	2	0	0	 0.000
 147.087	 0.134	2	0	0	 0.000
 147.221	 0.133	2	0	0	 0.000
 147.354	 0.134	2	0	0	 0.000
 147.488	 0.134	2	0	0	 0.000
 147.622	 0.134	2	0	0	 0.000
 147.756	 0.134	2	0	0	 0.000
 147.890	 0.133	2	0	0	 0.000
 148.023	 0.154	2	0	0	 0.000
 148.177	 0.134	2	0	0	 0.000
 148.311	 1.425	0	0	0	 0.000
 149.736	 0.267	3	2	0	 2147483.647
 150.003	 0.268	3	0	0	 0.000
 150.271	 0.287	3	0	0	 0.000
 150.558	 0.268	3	0	0	 0.000
 150.826	 2.314	3	0	0	 0.000
 153.140	 2.026	10	0	0	 0.000
 155.166	 0.756	0	0	0	 0.000
 155.922	 0.134	1	0	0	 0.000
 156.056	 0.134	1	0	0	 0.000
 156.190	 0.134	1	0	0	 0.000
 156.324	 0.133	1	0	0	 0.000
 156.457	 0.134	1	0	0	 0.000
 156.591	 0.154	1	0	0	 0.000
 156.745	 0.134	1	0	0	 0.000
 156.879	 0.134	1	0	0	 0.000
 157.013	 0.133	1	0	0	 0.000
 157.146	 0.134	1	0	0	 0.000
 157.280	 0.134	1	0	0	 0.000
 157.414	 0.134	1	0	0	 0.000
 157.548	 2.046	0	0	0	 0.000
 159.594	 2.047	8	0	0	 0.000
 161.641	 1.625	0	0	0	 0.000
 163.266	 0.134	2	0	0	 0.000
 163.400	 0.134	2	0	0	 0.000
 163.534	 0.133	2	0	0	 0.000
 163.667	 0.134	2	0	0	 0.000
 163.801	 0.134	2	0	0	 0.000
 163.935	 0.154	2	0	0	 0.000
 164.089	 0.135	2	0	0	 0.000
 164.224	 0.133	2	0	0	 0.000
 164.357	 0.134	2	0	0	 0.000
 164.491	 0.134	2	0	0	 0.000
 164.625	 0.134	2	0	0	 0.000
 164.759	 0.133	2	0	0	 0.000
 164.892	 1.425	0	0	0	 0.000
 166.317	 0.288	9	0	0	 0.000
 166.605	 0.267	9	0	0	 0.000
 166.872	 0.268	9	0	0	 0.000
 167.140	 0.267	9	0	0	 0.000
 167.407	 1.980	0	0	0	 0.000
 169.387	 0.268	3	2	0	 2147483.647
 169.655	 0.267	3	0	0	 0.000
 169.922	 0.288	3	0	0	 0.000
 170.210	 0.267	3	0	0	 0.000
 170.477	 1.492	0	0	0	 0.000
 171.969	 2.046	8	0	0	 0.000
 174.015	 1.358	0	0	0	 0.000
 175.373	 0.268	9	0	0	 0.000
 175.641	 0.267	9	0	0	 0.000
 175.908	 0.268	9	0	0	 0.000
 176.176	 0.287	9	0	0	 0.000
 176.463	 1.693	0	0	0	 0.000
 178.156	 2.046	4	2	0	 2147483.647
 180.202	 1.358	0	0	0	 0.000
 181.560	 0.268	7	0	0	 0.000
 181.828	 0.268	7	0	0	 0.000
 182.096	 0.288	7	0	0	 0.000
 182.384	 0.267	7	0	0	 0.000
 182.651	 1.291	0	0	0	 0.000
 183.942	 0.134	1	0	0	 0.000
 184.076	 0.134	1	0	0	 0.000
 184.210	 0.133	1	0	0	 0.000
 184.343	 0.134	1	0	0	 0.000
 184.477	 0.134	1	0	0	 0.000
 184.611	 0.134	1	0	0	 0.000
 184.745	 0.153	1	0	0	 0.000
 184.898	 0.134	1	0	0	 0.000
 185.032	 0.134	1	0	0	 0.000
 185.166	 0.134	1	0	0	 0.000
 185.300	 0.134	1	0	0	 0.000
 185.434	 0.133	1	0	0	 0.000
 185.567	 1.425	0	0	0	 0.000
 186.992	 3.070	0	0	0	 0.000
 190.062	 3.404	0	0	0	 0.000
 193.466	 2.448	0	0	0	 0.000
 195.914	 0.134	1	0	0	 0.000
 196.048	 0.134	1	0	0	 0.000
 196.182	 0.134	1	0	0	 0.000
 196.316	 0.133	1	0	0	 0.000
 196.449	 0.134	1	0	0	 0.000
 196.583	 0.134	1	0	0	 0.000
 196.717	 0.134	1	0	0	 0.000
 196.851	 0.133	1	0	0	 0.000
 196.984	 0.154	1	0	0	 0.000
 197.138	 0.134	1	0	0	 0.000
 197.272	 0.134	1	0	0	 0.000
 197.406	 0.134	1	0	0	 0.000
 197.540	 1.760	0	0	0	 0.000
 199.300	 0.287	7	0	0	 0.000
 199.587	 0.268	7	0	0	 0.000
 199.855	 0.267	7	0	0	 0.000
 200.122	 0.268	7	0	0	 0.000
 200.390	 2.314	0	0	0	 0.000
 202.704	 0.267	9	0	0	 0.000
 202.971	 0.288	9	0	0	 0.000
 203.259	 0.268	9	0	0	 0.000
 203.527	 0.267	9	0	0	 0.000
 203.794	 1.980	0	0	0	 0.000
 205.774	 2.026	8	0	0	 0.000
 207.800	 1.024	0	0	0	 0.000
 208.824	 2.046	8	0	0	 0.000
 210.870	 0.736	0	0	0	 0.000
 211.606	 0.154	2	0	0	 0.000
 211.760	 0.134	2	0	0	 0.000
 211.894	 0.134	2	0	0	 0.000
 212.028	 0.133	2	0	0	 0.000
 212.161	 0.134	2	0	0	 0.000
 212.295	 0.134	2	0	0	 0.000
 212.429	 0.134	2	0	0	 0.000
 212.563	 0.133	2	0	0	 0.000
 212.696	 0.134	2	0	0	 0.000
 212.830	 0.154	2	0	0	 0.000
 212.984	 0.134	2	0	0	 0.000
 213.118	 0.134	2	0	0	 0.000
 213.252	 1.759	0	0	0	 0.000
 215.011	 0.133	2	0	0	 0.000
 215.144	 0.134	2	0	0	 0.000
 215.278	 0.154	2	0	0	 0.000
 215.432	 0.134	2	0	0	 0.000
 215.566	 0.134	2	0	0	 0.000
 215.700	 0.133	2	0	0	 0.000
 215.833	 0.134	2	0	0	 0.000
 215.967	 0.134	2	0	0	 0.000
 216.101	 0.134	2	0	0	 0.000
 216.235	 0.133	2	0	0	 0.000
 216.368	 0.134	2	0	0	 0.000
 216.502	 0.155	2	0	0	 0.000
 216.657	 1.425	0	0	0	 0.000
 218.082	 0.133	2	0	0	 0.000
 218.215	 0.134	2	0	0	 0.000
 218.349	 0.134	2	0	0	 0.000
 218.483	 0.134	2	0	0	 0.000
 218.617	 0.133	2	0	0	 0.000
 218.750	 0.134	2	0	0	 0.000
 218.884	 0.134	2	0	0	 0.000
 219.018	 0.154	2	0	0	 0.000
 219.172	 0.134	2	0	0	 0.000
 219.306	 0.133	2	0	0	 0.000
 219.439	 0.134	2	0	0	 0.000
 219.573	 0.134	2	0	0	 0.000
 219.707	 1.157	0	0	0	 0.000
 220.864	 2.047	6	4	0	 2147483.647
 222.911	 1.003	0	0	0	 0.000
 223.914	 2.046	6	4	0	 2147483.647
 225.960	 1.024	0	0	0	 0.000
 226.984	 0.134	1	0	0	 0.000
 227.118	 0.133	1	0	0	 0.000
 227.251	 0.134	1	0	0	 0.000
 227.385	 0.134	1	0	0	 0.000
 227.519	 0.154	1	0	0	 0.000
 227.673	 0.134	1	0	0	 0.000
 227.807	 0.133	1	0	0	 0.000
 227.940	 0.134	1	0	0	 0.000
 228.074	 0.134	1	0	0	 0.000
 228.208	 0.134	1	0	0	 0.000
 228.342	 0.133	1	0	0	 0.000
 228.475	 0.134	1	0	0	 0.000
 228.609	 1.157	0	0	0	 0.000
 229.766	 2.047	8	0	0	 0.000
 231.813	 1.358	0	0	0	 0.000
 233.171	 0.133	1	0	0	 0.000
 233.304	 0.134	1	0	0	 0.000
 233.438	 0.134	1	0	0	 0.000
 233.572	 0.134	1	0	0	 0.000
 233.706	 0.154	1	0	0	 0.000
 233.860	 0.133	1	0	0	 0.000
 233.993	 0.134	1	0	0	 0.000
 234.127	 0.135	1	0	0	 0.000
 234.262	 0.134	1	0	0	 0.000
 234.396	 0.133	1	0	0	 0.000
 234.529	 0.134	1	0	0	 0.000
 234.663	 0.134	1	0	0	 0.000
 234.797	 1.445	0	0	0	 0.000
 236.242	 0.267	5	4	0	 2147483.647
 236.509	 0.268	5	0	0	 0.000
 236.777	 0.267	5	0	0	 0.000
 237.044	 0.268	5	0	0	 0.000
 237.312	 1.291	0	0	0	 0.000
 238.603	 0.287	3	2	0	 2147483.647
 238.890	 0.268	3	0	0	 0.000
 239.158	 0.267	3	0	0	 0.000
 239.425	 0.268	3	0	0	 0.000
 239.693	 2.314	0	0	0	 0.000
 242.007	 2.047	8	0	0	 0.000
 244.054	 0.755	0	0	0	 0.000
 244.809	 2.027	10	0	0	 0.000
 246.836	 1.358	0	0	0	 0.000
 248.194	 3.070	0	0	0	 0.000
 251.264	 3.051	0	0	0	 0.000
 254.315	 0.287	9	0	0	 0.000
 254.602	 0.268	9	0	0	 0.000
 254.870	 0.267	9	0	0	 0.000
 255.137	 0.268	9	0	0	 0.000
 255.405	 1.358	0	0	0	 0.000
 256.763	 0.133	1	0	0	 0.000
 256.896	 0.154	1	0	0	 0.000
 257.050	 0.134	1	0	0	 0.000
 257.184	 0.134	1	0	0	 0.000
 257.318	 0.133	1	0	0	 0.000
 257.451	 0.134	1	0	0	 0.000
 257.585	 0.134	1	0	0	 0.000
 257.719	 0.134	1	0	0	 0.000
 257.853	 0.134	1	0	0	 0.000
 257.987	 0.133	1	0	0	 0.000
 258.120	 0.154	1	0	0	 0.000
 258.274	 0.134	1	0	0	 0.000
 258.408	 1.759	0	0	0	 0.000
 260.167	 0.267	7	0	0	 0.000
 260.434	 0.288	7	0	0	 0.000
 260.722	 0.268	7	0	0	 0.000
 260.990	 0.267	7	0	0	 0.000
 261.257	 1.291	0	0	0	 0.000
 262.548	 2.047	4	2	0	 2147483.647
 264.595	 0.735	0	0	0	 0.000
 265.330	 2.047	4	2	0	 2147483.647
 267.377	 1.023	0	0	0	 0.000
 268.400	 2.028	8	0	0	 0.000
 270.428	 1.645	0	0	0	 0.000
 272.073	 0.134	2	0	0	 0.000
 272.207	 0.134	2	0	0	 0.000
 272.341	 0.134	2	0	0	 0.000
 272.475	 0.133	2	0	0	 0.000
 272.608	 0.134	2	0	0	 0.000
 272.742	 0.134	2	0	0	 0.000
 272.876	 0.154	2	0	0	 0.000
 273.030	 0.134	2	0	0	 0.000
 273.164	 0.133	2	0	0	 0.000
 273.297	 0.134	2	0	0	 0.000
 273.431	 0.134	2	0	0	 0.000
 273.565	 0.134	2	0	0	 0.000
 273.699	 1.157	0	0	0	 0.000
 274.856	 0.133	1	0	0	 0.000
 274.989	 0.134	1	0	0	 0.000
 275.123	 0.134	1	0	0	 0.000
 275.257	 0.154	1	0	0	 0.000
 275.411	 0.134	1	0	0	 0.000
 275.545	 0.133	1	0	0	 0.000
 275.678	 0.134	1	0	0	 0.000
 275.812	 0.134	1	0	0	 0.000
 275.946	 0.134	1	0	0	 0.000
 276.080	 0.133	1	0	0	 0.000
 276.213	 0.134	1	0	0	 0.000
 276.347	 0.134	1	0	0	 0.000
 276.481	 1.445	0	0	0	 0.000
 277.926	 0.133	1	0	0	 0.000
 278.059	 0.134	1	0	0	 0.000
 278.193	 0.134	1	0	0	 0.000
 278.327	 0.134	1	0	0	 0.000
 278.461	 0.133	1	0	0	 0.000
 278.594	 0.134	1	0	0	 0.000
 278.728	 0.134	1	0	0	 0.000
 278.862	 0.134	1	0	0	 0.000
 278.996	 0.154	1	0	0	 0.000
 279.150	 0.133	1	0	0	 0.000
 279.283	 0.134	1	0	0	 0.000
 279.417	 0.134	1	0	0	 0.000
 279.551	 1.425	0	0	0	 0.000
 280.976	 2.782	0	0	0	 0.000
 283.758	 0.288	5	4	0	 2147483.647
 284.046	 0.267	5	0	0	 0.000
 284.313	 0.268	5	0	0	 0.000
 284.581	 0.267	5	0	0	 0.000
 284.848	 1.291	0	0	0	 0.000
 286.139	 0.134	2	0	0	 0.000
 286.273	 0.154	2	0	0	 0.000
 286.427	 0.133	2	0	0	 0.000
 286.560	 0.135	2	0	0	 0.000
 286.695	 0.134	2	0	0	 0.000
 286.829	 0.134	2	0	0	 0.000
 286.963	 0.133	2	0	0	 0.000
 287.096	 0.134	2	0	0	 0.000
 287.230	 0.134	2	0	0	 0.000
 287.364	 0.134	2	0	0	 0.000
 287.498	 0.154	2	0	0	 0.000
 287.652	 0.133	2	0	0	 0.000
 287.785	 1.759	0	0	0	 0.000
 289.544	 2.783	0	0	0	 0.000
 292.327	 2.046	10	0	0	 0.000
 294.373	 1.626	0	0	0	 0.000
 295.999	 0.287	9	0	0	 0.000
 296.286	 0.268	9	0	0	 0.000
 296.554	 0.267	9	0	0	 0.000
 296.821	 0.268	9	0	0	 0.000
 297.089	 1.291	0	0	0	 0.000
 298.380	 0.287	5	0	0	 0.000
 298.667	 0.268	5	0	0	 0.000
 298.935	 0.267	5	0	0	 0.000
 299.202	 0.268	5	0	0	 0.000
 299.470	 1.358	5	4	0	 2147483.647
 300.828	 2.046	10	0	0	 0.000
 302.874	 1.627	0	0	0	 0.000
 304.501	 2.046	10	0	0	 0.000
 306.547	 6.528	0	0	0	 0.000
