onset	duration	trial_type	expected_response	given_response	response_time
 0.000	 4.073	Filler	0	0	 0.000
 4.073	 0.669	ISI	0	0	 0.000
 4.742	 0.355	Croix	0	0	 0.000
 5.097	 0.668	Noir	0	0	 0.000
 5.765	 0.689	pseudocomplex	1	0	 2147483.647
 6.454	 0.736	ISI	0	0	 0.000
 7.190	 0.354	croix	0	0	 0.000
 7.544	 0.669	Noir	0	0	 0.000
 8.213	 0.689	H	0	0	 0.000
 8.902	 0.602	ISI	0	0	 0.000
 9.504	 0.355	croix	0	0	 0.000
 9.859	 0.668	Noir	0	0	 0.000
 10.527	 0.689	complex	1	0	 2147483.647
 11.216	 0.602	ISI	0	0	 0.000
 11.818	 0.335	croix	0	0	 0.000
 12.153	 0.689	Noir	0	0	 0.000
 12.842	 0.689	complex	1	0	 2147483.647
 13.531	 0.869	ISI	0	0	 0.000
 14.400	 0.355	croix	0	0	 0.000
 14.755	 0.668	Noir	0	0	 0.000
 15.423	 0.689	complex	1	0	 2147483.647
 16.112	 0.736	ISI	0	0	 0.000
 16.848	 0.355	croix	0	0	 0.000
 17.203	 0.669	Noir	0	0	 0.000
 17.872	 0.689	H	0	0	 0.000
 18.561	 0.602	ISI	0	0	 0.000
 19.163	 0.335	croix	0	0	 0.000
 19.498	 0.688	Noir	0	0	 0.000
 20.186	 0.689	pseudocomplex	1	0	 2147483.647
 20.875	 0.602	ISI	0	0	 0.000
 21.477	 0.335	croix	0	0	 0.000
 21.812	 0.689	Noir	0	0	 0.000
 22.501	 0.668	complex	1	0	 2147483.647
 23.169	 0.556	ISI	0	0	 0.000
 23.725	 0.334	croix	0	0	 0.000
 24.059	 0.689	Noir	0	0	 0.000
 24.748	 0.669	H	0	0	 0.000
 25.417	 0.622	ISI	0	0	 0.000
 26.039	 0.334	croix	0	0	 0.000
 26.373	 0.689	Noir	0	0	 0.000
 27.062	 0.669	complex	1	0	 2147483.647
 27.731	 0.756	ISI	0	0	 0.000
 28.487	 0.334	croix	0	0	 0.000
 28.821	 0.689	Noir	0	0	 0.000
 29.510	 0.669	pseudocomplex	1	0	 2147483.647
 30.179	 0.956	ISI	0	0	 0.000
 31.135	 0.335	croix	0	0	 0.000
 31.470	 0.689	Noir	0	0	 0.000
 32.159	 0.669	pseudocomplex	1	0	 2147483.647
 32.828	 0.755	ISI	0	0	 0.000
 33.583	 0.335	croix	0	0	 0.000
 33.918	 0.689	Noir	0	0	 0.000
 34.607	 0.670	complex	1	0	 2147483.647
 35.277	 0.555	ISI	0	0	 0.000
 35.832	 0.334	croix	0	0	 0.000
 36.166	 0.689	Noir	0	0	 0.000
 36.855	 0.669	H	0	0	 0.000
 37.524	 0.756	ISI	0	0	 0.000
 38.280	 0.334	croix	0	0	 0.000
 38.614	 0.689	Noir	0	0	 0.000
 39.303	 0.669	complex	1	0	 2147483.647
 39.972	 0.822	ISI	0	0	 0.000
 40.794	 0.335	croix	0	0	 0.000
 41.129	 0.689	Noir	0	0	 0.000
 41.818	 0.669	pseudocomplex	1	0	 2147483.647
 42.487	 0.555	ISI	0	0	 0.000
 43.042	 0.334	croix	0	0	 0.000
 43.376	 0.689	Noir	0	0	 0.000
 44.065	 0.669	H	0	0	 0.000
 44.734	 0.689	ISI	0	0	 0.000
 45.423	 0.334	croix	0	0	 0.000
 45.757	 0.669	Noir	0	0	 0.000
 46.426	 0.689	pseudocomplex	1	0	 2147483.647
 47.115	 0.535	ISI	0	0	 0.000
 47.650	 0.355	croix	0	0	 0.000
 48.005	 0.668	Noir	0	0	 0.000
 48.673	 0.689	complex	1	0	 2147483.647
 49.362	 0.602	ISI	0	0	 0.000
 49.964	 0.355	croix	0	0	 0.000
 50.319	 0.669	Noir	0	0	 0.000
 50.988	 0.688	complex	1	0	 2147483.647
 51.676	 0.603	ISI	0	0	 0.000
 52.279	 0.355	croix	0	0	 0.000
 52.634	 0.669	Noir	0	0	 0.000
 53.303	 0.689	pseudocomplex	1	0	 2147483.647
 53.992	 0.602	ISI	0	0	 0.000
 54.594	 0.334	croix	0	0	 0.000
 54.928	 0.689	Noir	0	0	 0.000
 55.617	 0.689	complex	1	0	 2147483.647
 56.306	 0.535	ISI	0	0	 0.000
 56.841	 0.334	croix	0	0	 0.000
 57.175	 0.689	Noir	0	0	 0.000
 57.864	 0.669	H	0	0	 0.000
 58.533	 0.756	ISI	0	0	 0.000
 59.289	 0.334	croix	0	0	 0.000
 59.623	 0.689	Noir	0	0	 0.000
 60.312	 0.669	complex	1	0	 2147483.647
 60.981	 0.622	ISI	0	0	 0.000
 61.603	 0.334	croix	0	0	 0.000
 61.937	 0.689	Noir	0	0	 0.000
 62.626	 0.669	H	0	0	 0.000
 63.295	 0.689	ISI	0	0	 0.000
 63.984	 0.335	croix	0	0	 0.000
 64.319	 0.688	Noir	0	0	 0.000
 65.007	 0.669	complex	1	0	 2147483.647
 65.676	 0.823	ISI	0	0	 0.000
 66.499	 0.334	croix	0	0	 0.000
 66.833	 0.689	Noir	0	0	 0.000
 67.522	 0.669	pseudocomplex	1	0	 2147483.647
 68.191	 0.555	ISI	0	0	 0.000
 68.746	 0.335	croix	0	0	 0.000
 69.081	 0.690	Noir	0	0	 0.000
 69.771	 0.668	complex	1	0	 2147483.647
 70.439	 0.756	ISI	0	0	 0.000
 71.195	 0.335	croix	0	0	 0.000
 71.530	 0.689	Noir	0	0	 0.000
 72.219	 0.668	pseudocomplex	1	0	 2147483.647
 72.887	 0.823	ISI	0	0	 0.000
 73.710	 0.334	croix	0	0	 0.000
 74.044	 0.689	Noir	0	0	 0.000
 74.733	 0.669	complex	1	0	 2147483.647
 75.402	 0.622	ISI	0	0	 0.000
 76.024	 0.335	croix	0	0	 0.000
 76.359	 0.668	Noir	0	0	 0.000
 77.027	 0.689	H	0	0	 0.000
 77.716	 0.535	ISI	0	0	 0.000
 78.251	 0.355	croix	0	0	 0.000
 78.606	 0.669	Noir	0	0	 0.000
 79.275	 0.689	complex	1	0	 2147483.647
 79.964	 0.535	ISI	0	0	 0.000
 80.499	 0.354	croix	0	0	 0.000
 80.853	 0.669	Noir	0	0	 0.000
 81.522	 0.689	pseudocomplex	1	0	 2147483.647
 82.211	 0.602	ISI	0	0	 0.000
 82.813	 0.334	croix	0	0	 0.000
 83.147	 0.689	Noir	0	0	 0.000
 83.836	 0.689	H	0	0	 0.000
 84.525	 0.870	ISI	0	0	 0.000
 85.395	 0.354	croix	0	0	 0.000
 85.749	 0.669	Noir	0	0	 0.000
 86.418	 0.689	pseudocomplex	1	0	 2147483.647
 87.107	 0.603	ISI	0	0	 0.000
 87.710	 0.334	croix	0	0	 0.000
 88.044	 0.689	Noir	0	0	 0.000
 88.733	 0.689	H	0	0	 0.000
 89.422	 0.669	ISI	0	0	 0.000
 90.091	 0.334	croix	0	0	 0.000
 90.425	 0.689	Noir	0	0	 0.000
 91.114	 0.689	complex	1	0	 2147483.647
 91.803	 0.736	ISI	0	0	 0.000
 92.539	 0.334	croix	0	0	 0.000
 92.873	 0.689	Noir	0	0	 0.000
 93.562	 0.689	pseudocomplex	1	0	 2147483.647
 94.251	 0.535	ISI	0	0	 0.000
 94.786	 0.335	croix	0	0	 0.000
 95.121	 0.689	Noir	0	0	 0.000
 95.810	 0.668	complex	1	0	 2147483.647
 96.478	 1.157	ISI	0	0	 0.000
 97.635	 0.355	croix	0	0	 0.000
 97.990	 0.669	Noir	0	0	 0.000
 98.659	 0.689	pseudocomplex	1	0	 2147483.647
 99.348	 0.936	ISI	0	0	 0.000
 100.284	 0.355	croix	0	0	 0.000
 100.639	 0.668	Noir	0	0	 0.000
 101.307	 0.689	pseudocomplex	1	0	 2147483.647
 101.996	 0.602	ISI	0	0	 0.000
 102.598	 0.355	croix	0	0	 0.000
 102.953	 0.669	Noir	0	0	 0.000
 103.622	 0.688	pseudocomplex	1	0	 2147483.647
 104.310	 1.694	ISI	0	0	 0.000
 106.004	 0.334	croix	0	0	 0.000
 106.338	 0.689	Noir	0	0	 0.000
 107.027	 0.689	H	0	0	 0.000
 107.716	 0.869	ISI	0	0	 0.000
 108.585	 0.355	croix	0	0	 0.000
 108.940	 0.669	Noir	0	0	 0.000
 109.609	 0.689	pseudocomplex	1	0	 2147483.647
 110.298	 0.668	ISI	0	0	 0.000
 110.966	 0.335	croix	0	0	 0.000
 111.301	 0.689	Noir	0	0	 0.000
 111.990	 0.689	pseudocomplex	1	0	 2147483.647
 112.679	 0.602	ISI	0	0	 0.000
 113.281	 0.334	croix	0	0	 0.000
 113.615	 0.689	Noir	0	0	 0.000
 114.304	 0.669	pseudocomplex	1	0	 2147483.647
 114.973	 0.555	ISI	0	0	 0.000
 115.528	 0.334	croix	0	0	 0.000
 115.862	 0.689	Noir	0	0	 0.000
 116.551	 0.669	H	0	0	 0.000
 117.220	 0.756	ISI	0	0	 0.000
 117.976	 0.334	croix	0	0	 0.000
 118.310	 0.689	Noir	0	0	 0.000
 118.999	 0.669	pseudocomplex	1	0	 2147483.647
 119.668	 1.291	ISI	0	0	 0.000
 120.959	 0.354	croix	0	0	 0.000
 121.313	 0.669	Noir	0	0	 0.000
 121.982	 0.690	complex	1	0	 2147483.647
 122.672	 0.736	ISI	0	0	 0.000
 123.408	 0.354	croix	0	0	 0.000
 123.762	 0.669	Noir	0	0	 0.000
 124.431	 0.689	pseudocomplex	1	0	 2147483.647
 125.120	 0.736	ISI	0	0	 0.000
 125.856	 0.354	croix	0	0	 0.000
 126.210	 0.669	Noir	0	0	 0.000
 126.879	 0.689	complex	1	0	 2147483.647
 127.568	 0.535	ISI	0	0	 0.000
 128.103	 0.335	croix	0	0	 0.000
 128.438	 0.688	Noir	0	0	 0.000
 129.126	 0.689	H	0	0	 0.000
 129.815	 0.669	ISI	0	0	 0.000
 130.484	 0.335	croix	0	0	 0.000
 130.819	 0.689	Noir	0	0	 0.000
 131.508	 0.688	pseudocomplex	1	0	 2147483.647
 132.196	 0.803	ISI	0	0	 0.000
 132.999	 0.334	croix	0	0	 0.000
 133.333	 0.689	Noir	0	0	 0.000
 134.022	 0.689	complex	1	0	 2147483.647
 134.711	 0.602	ISI	0	0	 0.000
 135.313	 0.335	croix	0	0	 0.000
 135.648	 0.689	Noir	0	0	 0.000
 136.337	 0.668	H	0	0	 0.000
 137.005	 0.556	ISI	0	0	 0.000
 137.561	 0.334	croix	0	0	 0.000
 137.895	 0.689	Noir	0	0	 0.000
 138.584	 0.669	pseudocomplex	1	0	 2147483.647
 139.253	 0.623	ISI	0	0	 0.000
 139.876	 0.334	croix	0	0	 0.000
 140.210	 0.689	Noir	0	0	 0.000
 140.899	 0.669	complex	1	0	 2147483.647
 141.568	 0.889	ISI	0	0	 0.000
 142.457	 0.335	croix	0	0	 0.000
 142.792	 0.689	Noir	0	0	 0.000
 143.481	 0.669	pseudocomplex	1	0	 2147483.647
 144.150	 0.688	ISI	0	0	 0.000
 144.838	 0.335	croix	0	0	 0.000
 145.173	 0.689	Noir	0	0	 0.000
 145.862	 0.669	H	0	0	 0.000
 146.531	 0.689	ISI	0	0	 0.000
 147.220	 0.334	croix	0	0	 0.000
 147.554	 0.689	Noir	0	0	 0.000
 148.243	 0.669	pseudocomplex	1	0	 2147483.647
 148.912	 0.756	ISI	0	0	 0.000
 149.668	 0.334	croix	0	0	 0.000
 150.002	 0.689	Noir	0	0	 0.000
 150.691	 0.669	complex	1	0	 2147483.647
 151.360	 0.755	ISI	0	0	 0.000
 152.115	 0.335	croix	0	0	 0.000
 152.450	 0.689	Noir	0	0	 0.000
 153.139	 0.669	complex	1	0	 2147483.647
 153.808	 0.622	ISI	0	0	 0.000
 154.430	 0.334	croix	0	0	 0.000
 154.764	 0.689	Noir	0	0	 0.000
 155.453	 0.669	H	0	0	 0.000
 156.122	 0.622	ISI	0	0	 0.000
 156.744	 0.334	croix	0	0	 0.000
 157.078	 0.670	Noir	0	0	 0.000
 157.748	 0.689	pseudocomplex	1	0	 2147483.647
 158.437	 0.689	ISI	0	0	 0.000
 159.126	 0.334	croix	0	0	 0.000
 159.460	 0.669	Noir	0	0	 0.000
 160.129	 0.689	pseudocomplex	1	0	 2147483.647
 160.818	 0.669	ISI	0	0	 0.000
 161.487	 0.354	croix	0	0	 0.000
 161.841	 0.669	Noir	0	0	 0.000
 162.510	 0.689	complex	1	0	 2147483.647
 163.199	 0.602	ISI	0	0	 0.000
 163.801	 0.355	croix	0	0	 0.000
 164.156	 0.668	Noir	0	0	 0.000
 164.824	 0.689	complex	1	0	 2147483.647
 165.513	 0.535	ISI	0	0	 0.000
 166.048	 0.335	croix	0	0	 0.000
 166.383	 0.689	Noir	0	0	 0.000
 167.072	 0.689	H	0	0	 0.000
 167.761	 0.535	ISI	0	0	 0.000
 168.296	 0.334	croix	0	0	 0.000
 168.630	 0.689	Noir	0	0	 0.000
 169.319	 0.669	pseudocomplex	1	0	 2147483.647
 169.988	 0.622	ISI	0	0	 0.000
 170.610	 0.334	croix	0	0	 0.000
 170.944	 0.689	Noir	0	0	 0.000
 171.633	 0.669	H	0	0	 0.000
 172.302	 0.622	ISI	0	0	 0.000
 172.924	 0.335	croix	0	0	 0.000
 173.259	 0.688	Noir	0	0	 0.000
 173.947	 0.669	pseudocomplex	1	0	 2147483.647
 174.616	 0.623	ISI	0	0	 0.000
 175.239	 0.335	croix	0	0	 0.000
 175.574	 0.689	Noir	0	0	 0.000
 176.263	 0.668	pseudocomplex	1	0	 2147483.647
 176.931	 0.556	ISI	0	0	 0.000
 177.487	 0.334	croix	0	0	 0.000
 177.821	 0.669	Noir	0	0	 0.000
 178.490	 0.689	pseudocomplex	1	0	 2147483.647
 179.179	 0.822	ISI	0	0	 0.000
 180.001	 0.335	croix	0	0	 0.000
 180.336	 0.669	Noir	0	0	 0.000
 181.005	 0.689	pseudocomplex	1	0	 2147483.647
 181.694	 0.601	ISI	0	0	 0.000
 182.295	 0.355	croix	0	0	 0.000
 182.650	 0.669	Noir	0	0	 0.000
 183.319	 0.689	H	0	0	 0.000
 184.008	 0.669	ISI	0	0	 0.000
 184.677	 0.354	croix	0	0	 0.000
 185.031	 0.669	Noir	0	0	 0.000
 185.700	 0.689	pseudocomplex	1	0	 2147483.647
 186.389	 0.736	ISI	0	0	 0.000
 187.125	 0.354	croix	0	0	 0.000
 187.479	 0.669	Noir	0	0	 0.000
 188.148	 0.689	complex	1	0	 2147483.647
 188.837	 0.602	ISI	0	0	 0.000
 189.439	 0.354	croix	0	0	 0.000
 189.793	 0.669	Noir	0	0	 0.000
 190.462	 0.689	H	0	0	 0.000
 191.151	 0.736	ISI	0	0	 0.000
 191.887	 0.355	croix	0	0	 0.000
 192.242	 0.669	Noir	0	0	 0.000
 192.911	 0.689	complex	1	0	 2147483.647
 193.600	 0.602	ISI	0	0	 0.000
 194.202	 0.334	croix	0	0	 0.000
 194.536	 0.689	Noir	0	0	 0.000
 195.225	 0.689	complex	1	0	 2147483.647
 195.914	 0.535	ISI	0	0	 0.000
 196.449	 0.335	croix	0	0	 0.000
 196.784	 0.689	Noir	0	0	 0.000
 197.473	 0.668	pseudocomplex	1	0	 2147483.647
 198.141	 0.622	ISI	0	0	 0.000
 198.763	 0.335	croix	0	0	 0.000
 199.098	 0.689	Noir	0	0	 0.000
 199.787	 0.669	complex	1	0	 2147483.647
 200.456	 0.688	ISI	0	0	 0.000
 201.144	 0.335	croix	0	0	 0.000
 201.479	 0.689	Noir	0	0	 0.000
 202.168	 0.669	H	0	0	 0.000
 202.837	 0.889	ISI	0	0	 0.000
 203.726	 0.335	croix	0	0	 0.000
 204.061	 0.689	Noir	0	0	 0.000
 204.750	 0.668	complex	1	0	 2147483.647
 205.418	 0.555	ISI	0	0	 0.000
 205.973	 0.335	croix	0	0	 0.000
 206.308	 0.689	Noir	0	0	 0.000
 206.997	 0.669	complex	1	0	 2147483.647
 207.666	 0.822	ISI	0	0	 0.000
 208.488	 0.335	croix	0	0	 0.000
 208.823	 0.689	Noir	0	0	 0.000
 209.512	 0.669	H	0	0	 0.000
 210.181	 1.024	ISI	0	0	 0.000
 211.205	 0.334	croix	0	0	 0.000
 211.539	 0.689	Noir	0	0	 0.000
 212.228	 0.669	complex	1	0	 2147483.647
 212.897	 0.689	ISI	0	0	 0.000
 213.586	 0.334	croix	0	0	 0.000
 213.920	 0.689	Noir	0	0	 0.000
 214.609	 0.669	complex	1	0	 2147483.647
 215.278	 0.689	ISI	0	0	 0.000
 215.967	 0.334	croix	0	0	 0.000
 216.301	 0.689	Noir	0	0	 0.000
 216.990	 0.669	complex	1	0	 2147483.647
 217.659	 0.555	ISI	0	0	 0.000
 218.214	 0.335	croix	0	0	 0.000
 218.549	 0.689	Noir	0	0	 0.000
 219.238	 0.668	pseudocomplex	1	0	 2147483.647
 219.906	 0.556	ISI	0	0	 0.000
 220.462	 0.334	croix	0	0	 0.000
 220.796	 0.669	Noir	0	0	 0.000
 221.465	 0.689	H	0	0	 0.000
 222.154	 0.535	ISI	0	0	 0.000
 222.689	 0.354	croix	0	0	 0.000
 223.043	 0.669	Noir	0	0	 0.000
 223.712	 0.689	pseudocomplex	1	0	 2147483.647
 224.401	 0.823	ISI	0	0	 0.000
 225.224	 0.334	croix	0	0	 0.000
 225.558	 0.669	Noir	0	0	 0.000
 226.227	 0.689	pseudocomplex	1	0	 2147483.647
 226.916	 0.890	ISI	0	0	 0.000
 227.806	 0.335	croix	0	0	 0.000
 228.141	 0.669	Noir	0	0	 0.000
 228.810	 0.689	complex	1	0	 2147483.647
 229.499	 0.622	ISI	0	0	 0.000
 230.121	 0.334	croix	0	0	 0.000
 230.455	 0.669	Noir	0	0	 0.000
 231.124	 0.689	H	0	0	 0.000
 231.813	 0.535	ISI	0	0	 0.000
 232.348	 0.354	croix	0	0	 0.000
 232.702	 0.669	Noir	0	0	 0.000
 233.371	 0.689	pseudocomplex	1	0	 2147483.647
 234.060	 0.669	ISI	0	0	 0.000
 234.729	 0.354	croix	0	0	 0.000
 235.083	 0.669	Noir	0	0	 0.000
 235.752	 0.689	pseudocomplex	1	0	 2147483.647
 236.441	 0.669	ISI	0	0	 0.000
 237.110	 0.354	croix	0	0	 0.000
 237.464	 0.669	Noir	0	0	 0.000
 238.133	 0.689	pseudocomplex	1	0	 2147483.647
 238.822	 0.669	ISI	0	0	 0.000
 239.491	 0.334	croix	0	0	 0.000
 239.825	 0.689	Noir	0	0	 0.000
 240.514	 0.689	H	0	0	 0.000
 241.203	 0.736	ISI	0	0	 0.000
 241.939	 0.334	croix	0	0	 0.000
 242.273	 0.689	Noir	0	0	 0.000
 242.962	 0.689	pseudocomplex	1	0	 2147483.647
 243.651	 0.602	ISI	0	0	 0.000
 244.253	 0.336	croix	0	0	 0.000
 244.589	 0.689	Noir	0	0	 0.000
 245.278	 0.668	complex	1	0	 2147483.647
 245.946	 0.555	ISI	0	0	 0.000
 246.501	 0.335	croix	0	0	 0.000
 246.836	 0.689	Noir	0	0	 0.000
 247.525	 0.669	H	0	0	 0.000
 248.194	 0.755	ISI	0	0	 0.000
 248.949	 0.335	croix	0	0	 0.000
 249.284	 0.689	Noir	0	0	 0.000
 249.973	 0.669	pseudocomplex	1	0	 2147483.647
 250.642	 0.622	ISI	0	0	 0.000
 251.264	 0.334	croix	0	0	 0.000
 251.598	 0.689	Noir	0	0	 0.000
 252.287	 0.669	complex	1	0	 2147483.647
 252.956	 0.622	ISI	0	0	 0.000
 253.578	 0.334	croix	0	0	 0.000
 253.912	 0.689	Noir	0	0	 0.000
 254.601	 0.669	complex	1	0	 2147483.647
 255.270	 0.622	ISI	0	0	 0.000
 255.892	 0.334	croix	0	0	 0.000
 256.226	 0.669	Noir	0	0	 0.000
 256.895	 0.689	H	0	0	 0.000
 257.584	 0.602	ISI	0	0	 0.000
 258.186	 0.355	croix	0	0	 0.000
 258.541	 0.668	Noir	0	0	 0.000
 259.209	 0.689	complex	1	0	 2147483.647
 259.898	 0.602	ISI	0	0	 0.000
 260.500	 0.355	croix	0	0	 0.000
 260.855	 0.669	Noir	0	0	 0.000
 261.524	 0.690	pseudocomplex	1	0	 2147483.647
 262.214	 0.601	ISI	0	0	 0.000
 262.815	 0.355	croix	0	0	 0.000
 263.170	 0.669	Noir	0	0	 0.000
 263.839	 0.689	H	0	0	 0.000
 264.528	 0.802	ISI	0	0	 0.000
 265.330	 0.355	croix	0	0	 0.000
 265.685	 0.669	Noir	0	0	 0.000
 266.354	 0.689	complex	1	0	 2147483.647
 267.043	 0.535	ISI	0	0	 0.000
 267.578	 0.334	croix	0	0	 0.000
 267.912	 0.689	Noir	0	0	 0.000
 268.601	 0.689	pseudocomplex	1	0	 2147483.647
 269.290	 0.535	ISI	0	0	 0.000
 269.825	 0.334	croix	0	0	 0.000
 270.159	 0.689	Noir	0	0	 0.000
 270.848	 0.669	H	0	0	 0.000
 271.517	 0.689	ISI	0	0	 0.000
 272.206	 0.334	croix	0	0	 0.000
 272.540	 0.689	Noir	0	0	 0.000
 273.229	 0.669	complex	1	0	 2147483.647
 273.898	 0.555	ISI	0	0	 0.000
 274.453	 0.335	croix	0	0	 0.000
 274.788	 0.689	Noir	0	0	 0.000
 275.477	 0.668	complex	1	0	 2147483.647
 276.145	 0.556	ISI	0	0	 0.000
 276.701	 0.334	croix	0	0	 0.000
 277.035	 0.669	Noir	0	0	 0.000
 277.704	 0.689	H	0	0	 0.000
 278.393	 0.689	ISI	0	0	 0.000
 279.082	 0.334	croix	0	0	 0.000
 279.416	 0.670	Noir	0	0	 0.000
 280.086	 0.689	complex	1	0	 2147483.647
 280.775	 0.823	ISI	0	0	 0.000
 281.598	 0.334	croix	0	0	 0.000
 281.932	 0.669	Noir	0	0	 0.000
 282.601	 0.689	complex	1	0	 2147483.647
 283.290	 0.689	ISI	0	0	 0.000
 283.979	 0.334	croix	0	0	 0.000
 284.313	 0.669	Noir	0	0	 0.000
 284.982	 0.689	complex	1	0	 2147483.647
 285.671	 0.602	ISI	0	0	 0.000
 286.273	 0.354	croix	0	0	 0.000
 286.627	 0.669	Noir	0	0	 0.000
 287.296	 0.689	pseudocomplex	1	0	 2147483.647
 287.985	 0.602	ISI	0	0	 0.000
 288.587	 0.354	croix	0	0	 0.000
 288.941	 0.669	Noir	0	0	 0.000
 289.610	 0.689	H	0	0	 0.000
 290.299	 0.669	ISI	0	0	 0.000
 290.968	 0.354	croix	0	0	 0.000
 291.322	 0.669	Noir	0	0	 0.000
 291.991	 0.689	complex	1	0	 2147483.647
 292.680	 0.936	ISI	0	0	 0.000
 293.616	 0.355	croix	0	0	 0.000
 293.971	 0.669	Noir	0	0	 0.000
 294.640	 0.689	pseudocomplex	1	0	 2147483.647
 295.329	 0.669	ISI	0	0	 0.000
 295.998	 0.354	croix	0	0	 0.000
 296.352	 0.669	Noir	0	0	 0.000
 297.021	 0.690	pseudocomplex	1	0	 2147483.647
 297.711	 1.358	ISI	0	0	 0.000
 299.069	 0.334	croix	0	0	 0.000
 299.403	 0.689	Noir	0	0	 0.000
 300.092	 0.669	pseudocomplex	1	0	 2147483.647
 300.761	 0.889	ISI	0	0	 0.000
 301.650	 0.335	croix	0	0	 0.000
 301.985	 0.689	Noir	0	0	 0.000
 302.674	 0.668	H	0	0	 0.000
 303.342	 1.158	ISI	0	0	 0.000
 304.500	 0.354	croix	0	0	 0.000
 304.854	 0.669	Noir	0	0	 0.000
 305.523	 0.689	complex	1	0	 2147483.647
 306.212	 0.602	ISI	0	0	 0.000
 306.814	 0.334	croix	0	0	 0.000
 307.148	 0.689	Noir	0	0	 0.000
 307.837	 0.689	pseudocomplex	1	0	 2147483.647
 308.526	 0.736	ISI	0	0	 0.000
 309.262	 0.334	croix	0	0	 0.000
 309.596	 0.689	Noir	0	0	 0.000
 310.285	 0.689	H	0	0	 0.000
 310.974	 0.535	ISI	0	0	 0.000
 311.509	 0.334	croix	0	0	 0.000
 311.843	 0.689	Noir	0	0	 0.000
 312.532	 0.669	complex	1	0	 2147483.647
 313.201	 0.555	ISI	0	0	 0.000
 313.756	 0.335	croix	0	0	 0.000
 314.091	 0.690	Noir	0	0	 0.000
 314.781	 0.668	complex	1	0	 2147483.647
 315.449	 0.689	ISI	0	0	 0.000
 316.138	 0.335	croix	0	0	 0.000
 316.473	 0.689	Noir	0	0	 0.000
 317.162	 0.669	pseudocomplex	1	0	 2147483.647
 317.831	 0.622	ISI	0	0	 0.000
 318.453	 0.334	croix	0	0	 0.000
 318.787	 0.689	Noir	0	0	 0.000
 319.476	 0.669	complex	1	0	 2147483.647
 320.145	 0.622	ISI	0	0	 0.000
 320.767	 0.334	croix	0	0	 0.000
 321.101	 0.669	Noir	0	0	 0.000
 321.770	 0.689	H	0	0	 0.000
 322.459	 0.823	ISI	0	0	 0.000
 323.282	 0.334	croix	0	0	 0.000
 323.616	 0.669	Noir	0	0	 0.000
 324.285	 0.689	complex	1	0	 2147483.647
 324.974	 0.535	ISI	0	0	 0.000
 325.509	 0.354	croix	0	0	 0.000
 325.863	 0.669	Noir	0	0	 0.000
 326.532	 0.689	pseudocomplex	1	0	 2147483.647
 327.221	 0.602	ISI	0	0	 0.000
 327.823	 0.355	croix	0	0	 0.000
 328.178	 0.668	Noir	0	0	 0.000
 328.846	 0.689	pseudocomplex	1	0	 2147483.647
 329.535	 0.669	ISI	0	0	 0.000
 330.204	 4.080	Filler	0	0	 0.000
