onset	duration	trial_type	expected_response	given_response	response_time
 0.000	 4.073	Filler	0	0	 0.000
 4.073	 0.669	ISI	0	0	 0.000
 4.742	 0.354	Croix	0	0	 0.000
 5.096	 0.669	Noir	0	0	 0.000
 5.765	 0.689	pseudocomplex	1	0	 2147483.647
 6.454	 0.735	ISI	0	0	 0.000
 7.189	 0.355	croix	0	0	 0.000
 7.544	 0.669	Noir	0	0	 0.000
 8.213	 0.689	H	0	0	 0.000
 8.902	 0.602	ISI	0	0	 0.000
 9.504	 0.354	croix	0	0	 0.000
 9.858	 0.669	Noir	0	0	 0.000
 10.527	 0.689	complex	1	0	 2147483.647
 11.216	 0.602	ISI	0	0	 0.000
 11.818	 0.335	croix	0	0	 0.000
 12.153	 0.689	Noir	0	0	 0.000
 12.842	 0.689	complex	1	0	 2147483.647
 13.531	 0.870	ISI	0	0	 0.000
 14.401	 0.354	croix	0	0	 0.000
 14.755	 0.669	Noir	0	0	 0.000
 15.424	 0.689	complex	1	0	 2147483.647
 16.113	 0.736	ISI	0	0	 0.000
 16.849	 0.354	croix	0	0	 0.000
 17.203	 0.669	Noir	0	0	 0.000
 17.872	 0.689	H	0	0	 0.000
 18.561	 0.602	ISI	0	0	 0.000
 19.163	 0.334	croix	0	0	 0.000
 19.497	 0.689	Noir	0	0	 0.000
 20.186	 0.689	pseudocomplex	1	0	 2147483.647
 20.875	 0.602	ISI	0	0	 0.000
 21.477	 0.334	croix	0	0	 0.000
 21.811	 0.689	Noir	0	0	 0.000
 22.500	 0.669	complex	1	0	 2147483.647
 23.169	 0.555	ISI	0	0	 0.000
 23.724	 0.335	croix	0	0	 0.000
 24.059	 0.689	Noir	0	0	 0.000
 24.748	 0.668	H	0	0	 0.000
 25.416	 0.622	ISI	0	0	 0.000
 26.038	 0.335	croix	0	0	 0.000
 26.373	 0.689	Noir	0	0	 0.000
 27.062	 0.669	complex	1	0	 2147483.647
 27.731	 0.755	ISI	0	0	 0.000
 28.486	 0.335	croix	0	0	 0.000
 28.821	 0.689	Noir	0	0	 0.000
 29.510	 0.670	pseudocomplex	1	0	 2147483.647
 30.180	 0.956	ISI	0	0	 0.000
 31.136	 0.334	croix	0	0	 0.000
 31.470	 0.689	Noir	0	0	 0.000
 32.159	 0.669	pseudocomplex	1	0	 2147483.647
 32.828	 0.756	ISI	0	0	 0.000
 33.584	 0.334	croix	0	0	 0.000
 33.918	 0.689	Noir	0	0	 0.000
 34.607	 0.669	complex	1	0	 2147483.647
 35.276	 0.555	ISI	0	0	 0.000
 35.831	 0.335	croix	0	0	 0.000
 36.166	 0.689	Noir	0	0	 0.000
 36.855	 0.668	H	0	0	 0.000
 37.523	 0.756	ISI	0	0	 0.000
 38.279	 0.335	croix	0	0	 0.000
 38.614	 0.689	Noir	0	0	 0.000
 39.303	 0.668	complex	1	0	 2147483.647
 39.971	 0.823	ISI	0	0	 0.000
 40.794	 0.334	croix	0	0	 0.000
 41.128	 0.689	Noir	0	0	 0.000
 41.817	 0.669	pseudocomplex	1	0	 2147483.647
 42.486	 0.555	ISI	0	0	 0.000
 43.041	 0.335	croix	0	0	 0.000
 43.376	 0.689	Noir	0	0	 0.000
 44.065	 0.669	H	0	0	 0.000
 44.734	 0.688	ISI	0	0	 0.000
 45.422	 0.335	croix	0	0	 0.000
 45.757	 0.669	Noir	0	0	 0.000
 46.426	 0.690	pseudocomplex	1	0	 2147483.647
 47.116	 0.535	ISI	0	0	 0.000
 47.651	 0.354	croix	0	0	 0.000
 48.005	 0.669	Noir	0	0	 0.000
 48.674	 0.689	complex	1	0	 2147483.647
 49.363	 0.602	ISI	0	0	 0.000
 49.965	 0.354	croix	0	0	 0.000
 50.319	 0.669	Noir	0	0	 0.000
 50.988	 0.689	complex	1	0	 2147483.647
 51.677	 0.602	ISI	0	0	 0.000
 52.279	 0.355	croix	0	0	 0.000
 52.634	 0.668	Noir	0	0	 0.000
 53.302	 0.689	pseudocomplex	1	0	 2147483.647
 53.991	 0.602	ISI	0	0	 0.000
 54.593	 0.335	croix	0	0	 0.000
 54.928	 0.689	Noir	0	0	 0.000
 55.617	 0.688	complex	1	0	 2147483.647
 56.305	 0.536	ISI	0	0	 0.000
 56.841	 0.334	croix	0	0	 0.000
 57.175	 0.689	Noir	0	0	 0.000
 57.864	 0.669	H	0	0	 0.000
 58.533	 0.755	ISI	0	0	 0.000
 59.288	 0.335	croix	0	0	 0.000
 59.623	 0.689	Noir	0	0	 0.000
 60.312	 0.669	complex	1	0	 2147483.647
 60.981	 0.622	ISI	0	0	 0.000
 61.603	 0.334	croix	0	0	 0.000
 61.937	 0.689	Noir	0	0	 0.000
 62.626	 0.669	H	0	0	 0.000
 63.295	 0.689	ISI	0	0	 0.000
 63.984	 0.334	croix	0	0	 0.000
 64.318	 0.690	Noir	0	0	 0.000
 65.008	 0.669	complex	1	0	 2147483.647
 65.677	 0.823	ISI	0	0	 0.000
 66.500	 0.334	croix	0	0	 0.000
 66.834	 0.689	Noir	0	0	 0.000
 67.523	 0.669	pseudocomplex	1	0	 2147483.647
 68.192	 0.555	ISI	0	0	 0.000
 68.747	 0.334	croix	0	0	 0.000
 69.081	 0.689	Noir	0	0	 0.000
 69.770	 0.669	complex	1	0	 2147483.647
 70.439	 0.756	ISI	0	0	 0.000
 71.195	 0.334	croix	0	0	 0.000
 71.529	 0.689	Noir	0	0	 0.000
 72.218	 0.669	pseudocomplex	1	0	 2147483.647
 72.887	 0.823	ISI	0	0	 0.000
 73.710	 0.334	croix	0	0	 0.000
 74.044	 0.689	Noir	0	0	 0.000
 74.733	 0.669	complex	1	0	 2147483.647
 75.402	 0.622	ISI	0	0	 0.000
 76.024	 0.334	croix	0	0	 0.000
 76.358	 0.669	Noir	0	0	 0.000
 77.027	 0.689	H	0	0	 0.000
 77.716	 0.535	ISI	0	0	 0.000
 78.251	 0.355	croix	0	0	 0.000
 78.606	 0.668	Noir	0	0	 0.000
 79.274	 0.689	complex	1	0	 2147483.647
 79.963	 0.535	ISI	0	0	 0.000
 80.498	 0.355	croix	0	0	 0.000
 80.853	 0.669	Noir	0	0	 0.000
 81.522	 0.690	pseudocomplex	1	0	 2147483.647
 82.212	 0.602	ISI	0	0	 0.000
 82.814	 0.334	croix	0	0	 0.000
 83.148	 0.689	Noir	0	0	 0.000
 83.837	 0.689	H	0	0	 0.000
 84.526	 0.869	ISI	0	0	 0.000
 85.395	 0.355	croix	0	0	 0.000
 85.750	 0.669	Noir	0	0	 0.000
 86.419	 0.689	pseudocomplex	1	0	 2147483.647
 87.108	 0.601	ISI	0	0	 0.000
 87.709	 0.335	croix	0	0	 0.000
 88.044	 0.689	Noir	0	0	 0.000
 88.733	 0.689	H	0	0	 0.000
 89.422	 0.669	ISI	0	0	 0.000
 90.091	 0.334	croix	0	0	 0.000
 90.425	 0.689	Noir	0	0	 0.000
 91.114	 0.689	complex	1	0	 2147483.647
 91.803	 0.735	ISI	0	0	 0.000
 92.538	 0.335	croix	0	0	 0.000
 92.873	 0.689	Noir	0	0	 0.000
 93.562	 0.689	pseudocomplex	1	0	 2147483.647
 94.251	 0.535	ISI	0	0	 0.000
 94.786	 0.334	croix	0	0	 0.000
 95.120	 0.689	Noir	0	0	 0.000
 95.809	 0.669	complex	1	0	 2147483.647
 96.478	 1.157	ISI	0	0	 0.000
 97.635	 0.355	croix	0	0	 0.000
 97.990	 0.668	Noir	0	0	 0.000
 98.658	 0.689	pseudocomplex	1	0	 2147483.647
 99.347	 0.938	ISI	0	0	 0.000
 100.285	 0.354	croix	0	0	 0.000
 100.639	 0.669	Noir	0	0	 0.000
 101.308	 0.689	pseudocomplex	1	0	 2147483.647
 101.997	 0.602	ISI	0	0	 0.000
 102.599	 0.354	croix	0	0	 0.000
 102.953	 0.669	Noir	0	0	 0.000
 103.622	 0.689	pseudocomplex	1	0	 2147483.647
 104.311	 1.692	ISI	0	0	 0.000
 106.003	 0.335	croix	0	0	 0.000
 106.338	 0.689	Noir	0	0	 0.000
 107.027	 0.689	H	0	0	 0.000
 107.716	 0.869	ISI	0	0	 0.000
 108.585	 0.355	croix	0	0	 0.000
 108.940	 0.668	Noir	0	0	 0.000
 109.608	 0.689	pseudocomplex	1	0	 2147483.647
 110.297	 0.669	ISI	0	0	 0.000
 110.966	 0.334	croix	0	0	 0.000
 111.300	 0.689	Noir	0	0	 0.000
 111.989	 0.689	pseudocomplex	1	0	 2147483.647
 112.678	 0.602	ISI	0	0	 0.000
 113.280	 0.335	croix	0	0	 0.000
 113.615	 0.689	Noir	0	0	 0.000
 114.304	 0.668	pseudocomplex	1	0	 2147483.647
 114.972	 0.556	ISI	0	0	 0.000
 115.528	 0.334	croix	0	0	 0.000
 115.862	 0.689	Noir	0	0	 0.000
 116.551	 0.670	H	0	0	 0.000
 117.221	 0.756	ISI	0	0	 0.000
 117.977	 0.334	croix	0	0	 0.000
 118.311	 0.689	Noir	0	0	 0.000
 119.000	 0.669	pseudocomplex	1	0	 2147483.647
 119.669	 1.291	ISI	0	0	 0.000
 120.960	 0.354	croix	0	0	 0.000
 121.314	 0.669	Noir	0	0	 0.000
 121.983	 0.689	complex	1	0	 2147483.647
 122.672	 0.735	ISI	0	0	 0.000
 123.407	 0.355	croix	0	0	 0.000
 123.762	 0.669	Noir	0	0	 0.000
 124.431	 0.689	pseudocomplex	1	0	 2147483.647
 125.120	 0.735	ISI	0	0	 0.000
 125.855	 0.355	croix	0	0	 0.000
 126.210	 0.669	Noir	0	0	 0.000
 126.879	 0.689	complex	1	0	 2147483.647
 127.568	 0.535	ISI	0	0	 0.000
 128.103	 0.334	croix	0	0	 0.000
 128.437	 0.689	Noir	0	0	 0.000
 129.126	 0.689	H	0	0	 0.000
 129.815	 0.669	ISI	0	0	 0.000
 130.484	 0.334	croix	0	0	 0.000
 130.818	 0.689	Noir	0	0	 0.000
 131.507	 0.689	pseudocomplex	1	0	 2147483.647
 132.196	 0.803	ISI	0	0	 0.000
 132.999	 0.334	croix	0	0	 0.000
 133.333	 0.689	Noir	0	0	 0.000
 134.022	 0.690	complex	1	0	 2147483.647
 134.712	 0.602	ISI	0	0	 0.000
 135.314	 0.334	croix	0	0	 0.000
 135.648	 0.689	Noir	0	0	 0.000
 136.337	 0.669	H	0	0	 0.000
 137.006	 0.555	ISI	0	0	 0.000
 137.561	 0.335	croix	0	0	 0.000
 137.896	 0.689	Noir	0	0	 0.000
 138.585	 0.668	pseudocomplex	1	0	 2147483.647
 139.253	 0.622	ISI	0	0	 0.000
 139.875	 0.335	croix	0	0	 0.000
 140.210	 0.689	Noir	0	0	 0.000
 140.899	 0.668	complex	1	0	 2147483.647
 141.567	 0.890	ISI	0	0	 0.000
 142.457	 0.334	croix	0	0	 0.000
 142.791	 0.689	Noir	0	0	 0.000
 143.480	 0.669	pseudocomplex	1	0	 2147483.647
 144.149	 0.689	ISI	0	0	 0.000
 144.838	 0.335	croix	0	0	 0.000
 145.173	 0.688	Noir	0	0	 0.000
 145.861	 0.669	H	0	0	 0.000
 146.530	 0.689	ISI	0	0	 0.000
 147.219	 0.335	croix	0	0	 0.000
 147.554	 0.689	Noir	0	0	 0.000
 148.243	 0.668	pseudocomplex	1	0	 2147483.647
 148.911	 0.756	ISI	0	0	 0.000
 149.667	 0.335	croix	0	0	 0.000
 150.002	 0.689	Noir	0	0	 0.000
 150.691	 0.668	complex	1	0	 2147483.647
 151.359	 0.757	ISI	0	0	 0.000
 152.116	 0.335	croix	0	0	 0.000
 152.451	 0.688	Noir	0	0	 0.000
 153.139	 0.669	complex	1	0	 2147483.647
 153.808	 0.622	ISI	0	0	 0.000
 154.430	 0.335	croix	0	0	 0.000
 154.765	 0.689	Noir	0	0	 0.000
 155.454	 0.668	H	0	0	 0.000
 156.122	 0.623	ISI	0	0	 0.000
 156.745	 0.334	croix	0	0	 0.000
 157.079	 0.669	Noir	0	0	 0.000
 157.748	 0.689	pseudocomplex	1	0	 2147483.647
 158.437	 0.689	ISI	0	0	 0.000
 159.126	 0.334	croix	0	0	 0.000
 159.460	 0.669	Noir	0	0	 0.000
 160.129	 0.689	pseudocomplex	1	0	 2147483.647
 160.818	 0.668	ISI	0	0	 0.000
 161.486	 0.355	croix	0	0	 0.000
 161.841	 0.669	Noir	0	0	 0.000
 162.510	 0.689	complex	1	0	 2147483.647
 163.199	 0.602	ISI	0	0	 0.000
 163.801	 0.354	croix	0	0	 0.000
 164.155	 0.669	Noir	0	0	 0.000
 164.824	 0.689	complex	1	0	 2147483.647
 165.513	 0.535	ISI	0	0	 0.000
 166.048	 0.334	croix	0	0	 0.000
 166.382	 0.689	Noir	0	0	 0.000
 167.071	 0.689	H	0	0	 0.000
 167.760	 0.535	ISI	0	0	 0.000
 168.295	 0.335	croix	0	0	 0.000
 168.630	 0.689	Noir	0	0	 0.000
 169.319	 0.670	pseudocomplex	1	0	 2147483.647
 169.989	 0.622	ISI	0	0	 0.000
 170.611	 0.334	croix	0	0	 0.000
 170.945	 0.689	Noir	0	0	 0.000
 171.634	 0.669	H	0	0	 0.000
 172.303	 0.622	ISI	0	0	 0.000
 172.925	 0.334	croix	0	0	 0.000
 173.259	 0.689	Noir	0	0	 0.000
 173.948	 0.669	pseudocomplex	1	0	 2147483.647
 174.617	 0.622	ISI	0	0	 0.000
 175.239	 0.334	croix	0	0	 0.000
 175.573	 0.689	Noir	0	0	 0.000
 176.262	 0.669	pseudocomplex	1	0	 2147483.647
 176.931	 0.555	ISI	0	0	 0.000
 177.486	 0.335	croix	0	0	 0.000
 177.821	 0.668	Noir	0	0	 0.000
 178.489	 0.689	pseudocomplex	1	0	 2147483.647
 179.178	 0.823	ISI	0	0	 0.000
 180.001	 0.334	croix	0	0	 0.000
 180.335	 0.669	Noir	0	0	 0.000
 181.004	 0.689	pseudocomplex	1	0	 2147483.647
 181.693	 0.602	ISI	0	0	 0.000
 182.295	 0.355	croix	0	0	 0.000
 182.650	 0.668	Noir	0	0	 0.000
 183.318	 0.689	H	0	0	 0.000
 184.007	 0.669	ISI	0	0	 0.000
 184.676	 0.355	croix	0	0	 0.000
 185.031	 0.669	Noir	0	0	 0.000
 185.700	 0.688	pseudocomplex	1	0	 2147483.647
 186.388	 0.737	ISI	0	0	 0.000
 187.125	 0.355	croix	0	0	 0.000
 187.480	 0.668	Noir	0	0	 0.000
 188.148	 0.689	complex	1	0	 2147483.647
 188.837	 0.602	ISI	0	0	 0.000
 189.439	 0.355	croix	0	0	 0.000
 189.794	 0.669	Noir	0	0	 0.000
 190.463	 0.689	H	0	0	 0.000
 191.152	 0.735	ISI	0	0	 0.000
 191.887	 0.355	croix	0	0	 0.000
 192.242	 0.669	Noir	0	0	 0.000
 192.911	 0.689	complex	1	0	 2147483.647
 193.600	 0.601	ISI	0	0	 0.000
 194.201	 0.335	croix	0	0	 0.000
 194.536	 0.689	Noir	0	0	 0.000
 195.225	 0.689	complex	1	0	 2147483.647
 195.914	 0.535	ISI	0	0	 0.000
 196.449	 0.334	croix	0	0	 0.000
 196.783	 0.689	Noir	0	0	 0.000
 197.472	 0.669	pseudocomplex	1	0	 2147483.647
 198.141	 0.622	ISI	0	0	 0.000
 198.763	 0.334	croix	0	0	 0.000
 199.097	 0.689	Noir	0	0	 0.000
 199.786	 0.669	complex	1	0	 2147483.647
 200.455	 0.689	ISI	0	0	 0.000
 201.144	 0.334	croix	0	0	 0.000
 201.478	 0.689	Noir	0	0	 0.000
 202.167	 0.669	H	0	0	 0.000
 202.836	 0.890	ISI	0	0	 0.000
 203.726	 0.334	croix	0	0	 0.000
 204.060	 0.690	Noir	0	0	 0.000
 204.750	 0.669	complex	1	0	 2147483.647
 205.419	 0.555	ISI	0	0	 0.000
 205.974	 0.335	croix	0	0	 0.000
 206.309	 0.688	Noir	0	0	 0.000
 206.997	 0.669	complex	1	0	 2147483.647
 207.666	 0.823	ISI	0	0	 0.000
 208.489	 0.334	croix	0	0	 0.000
 208.823	 0.689	Noir	0	0	 0.000
 209.512	 0.669	H	0	0	 0.000
 210.181	 1.023	ISI	0	0	 0.000
 211.204	 0.335	croix	0	0	 0.000
 211.539	 0.689	Noir	0	0	 0.000
 212.228	 0.669	complex	1	0	 2147483.647
 212.897	 0.688	ISI	0	0	 0.000
 213.585	 0.335	croix	0	0	 0.000
 213.920	 0.689	Noir	0	0	 0.000
 214.609	 0.669	complex	1	0	 2147483.647
 215.278	 0.689	ISI	0	0	 0.000
 215.967	 0.334	croix	0	0	 0.000
 216.301	 0.689	Noir	0	0	 0.000
 216.990	 0.669	complex	1	0	 2147483.647
 217.659	 0.555	ISI	0	0	 0.000
 218.214	 0.334	croix	0	0	 0.000
 218.548	 0.689	Noir	0	0	 0.000
 219.237	 0.669	pseudocomplex	1	0	 2147483.647
 219.906	 0.555	ISI	0	0	 0.000
 220.461	 0.335	croix	0	0	 0.000
 220.796	 0.668	Noir	0	0	 0.000
 221.464	 0.690	H	0	0	 0.000
 222.154	 0.535	ISI	0	0	 0.000
 222.689	 0.355	croix	0	0	 0.000
 223.044	 0.669	Noir	0	0	 0.000
 223.713	 0.689	pseudocomplex	1	0	 2147483.647
 224.402	 0.822	ISI	0	0	 0.000
 225.224	 0.335	croix	0	0	 0.000
 225.559	 0.669	Noir	0	0	 0.000
 226.228	 0.689	pseudocomplex	1	0	 2147483.647
 226.917	 0.889	ISI	0	0	 0.000
 227.806	 0.334	croix	0	0	 0.000
 228.140	 0.669	Noir	0	0	 0.000
 228.809	 0.689	complex	1	0	 2147483.647
 229.498	 0.622	ISI	0	0	 0.000
 230.120	 0.335	croix	0	0	 0.000
 230.455	 0.668	Noir	0	0	 0.000
 231.123	 0.689	H	0	0	 0.000
 231.812	 0.535	ISI	0	0	 0.000
 232.347	 0.355	croix	0	0	 0.000
 232.702	 0.669	Noir	0	0	 0.000
 233.371	 0.689	pseudocomplex	1	0	 2147483.647
 234.060	 0.668	ISI	0	0	 0.000
 234.728	 0.355	croix	0	0	 0.000
 235.083	 0.669	Noir	0	0	 0.000
 235.752	 0.689	pseudocomplex	1	0	 2147483.647
 236.441	 0.669	ISI	0	0	 0.000
 237.110	 0.354	croix	0	0	 0.000
 237.464	 0.669	Noir	0	0	 0.000
 238.133	 0.689	pseudocomplex	1	0	 2147483.647
 238.822	 0.670	ISI	0	0	 0.000
 239.492	 0.334	croix	0	0	 0.000
 239.826	 0.689	Noir	0	0	 0.000
 240.515	 0.689	H	0	0	 0.000
 241.204	 0.736	ISI	0	0	 0.000
 241.940	 0.334	croix	0	0	 0.000
 242.274	 0.689	Noir	0	0	 0.000
 242.963	 0.689	pseudocomplex	1	0	 2147483.647
 243.652	 0.602	ISI	0	0	 0.000
 244.254	 0.334	croix	0	0	 0.000
 244.588	 0.689	Noir	0	0	 0.000
 245.277	 0.669	complex	1	0	 2147483.647
 245.946	 0.555	ISI	0	0	 0.000
 246.501	 0.334	croix	0	0	 0.000
 246.835	 0.689	Noir	0	0	 0.000
 247.524	 0.669	H	0	0	 0.000
 248.193	 0.756	ISI	0	0	 0.000
 248.949	 0.334	croix	0	0	 0.000
 249.283	 0.689	Noir	0	0	 0.000
 249.972	 0.669	pseudocomplex	1	0	 2147483.647
 250.641	 0.622	ISI	0	0	 0.000
 251.263	 0.335	croix	0	0	 0.000
 251.598	 0.689	Noir	0	0	 0.000
 252.287	 0.668	complex	1	0	 2147483.647
 252.955	 0.622	ISI	0	0	 0.000
 253.577	 0.335	croix	0	0	 0.000
 253.912	 0.689	Noir	0	0	 0.000
 254.601	 0.669	complex	1	0	 2147483.647
 255.270	 0.622	ISI	0	0	 0.000
 255.892	 0.334	croix	0	0	 0.000
 256.226	 0.670	Noir	0	0	 0.000
 256.896	 0.689	H	0	0	 0.000
 257.585	 0.602	ISI	0	0	 0.000
 258.187	 0.354	croix	0	0	 0.000
 258.541	 0.669	Noir	0	0	 0.000
 259.210	 0.689	complex	1	0	 2147483.647
 259.899	 0.602	ISI	0	0	 0.000
 260.501	 0.354	croix	0	0	 0.000
 260.855	 0.669	Noir	0	0	 0.000
 261.524	 0.689	pseudocomplex	1	0	 2147483.647
 262.213	 0.602	ISI	0	0	 0.000
 262.815	 0.355	croix	0	0	 0.000
 263.170	 0.668	Noir	0	0	 0.000
 263.838	 0.689	H	0	0	 0.000
 264.527	 0.803	ISI	0	0	 0.000
 265.330	 0.354	croix	0	0	 0.000
 265.684	 0.669	Noir	0	0	 0.000
 266.353	 0.689	complex	1	0	 2147483.647
 267.042	 0.535	ISI	0	0	 0.000
 267.577	 0.335	croix	0	0	 0.000
 267.912	 0.689	Noir	0	0	 0.000
 268.601	 0.689	pseudocomplex	1	0	 2147483.647
 269.290	 0.535	ISI	0	0	 0.000
 269.825	 0.334	croix	0	0	 0.000
 270.159	 0.689	Noir	0	0	 0.000
 270.848	 0.669	H	0	0	 0.000
 271.517	 0.689	ISI	0	0	 0.000
 272.206	 0.334	croix	0	0	 0.000
 272.540	 0.689	Noir	0	0	 0.000
 273.229	 0.669	complex	1	0	 2147483.647
 273.898	 0.556	ISI	0	0	 0.000
 274.454	 0.334	croix	0	0	 0.000
 274.788	 0.689	Noir	0	0	 0.000
 275.477	 0.669	complex	1	0	 2147483.647
 276.146	 0.555	ISI	0	0	 0.000
 276.701	 0.335	croix	0	0	 0.000
 277.036	 0.668	Noir	0	0	 0.000
 277.704	 0.689	H	0	0	 0.000
 278.393	 0.689	ISI	0	0	 0.000
 279.082	 0.335	croix	0	0	 0.000
 279.417	 0.669	Noir	0	0	 0.000
 280.086	 0.688	complex	1	0	 2147483.647
 280.774	 0.823	ISI	0	0	 0.000
 281.597	 0.335	croix	0	0	 0.000
 281.932	 0.668	Noir	0	0	 0.000
 282.600	 0.689	complex	1	0	 2147483.647
 283.289	 0.689	ISI	0	0	 0.000
 283.978	 0.335	croix	0	0	 0.000
 284.313	 0.668	Noir	0	0	 0.000
 284.981	 0.689	complex	1	0	 2147483.647
 285.670	 0.602	ISI	0	0	 0.000
 286.272	 0.355	croix	0	0	 0.000
 286.627	 0.669	Noir	0	0	 0.000
 287.296	 0.689	pseudocomplex	1	0	 2147483.647
 287.985	 0.601	ISI	0	0	 0.000
 288.586	 0.355	croix	0	0	 0.000
 288.941	 0.669	Noir	0	0	 0.000
 289.610	 0.689	H	0	0	 0.000
 290.299	 0.669	ISI	0	0	 0.000
 290.968	 0.354	croix	0	0	 0.000
 291.322	 0.670	Noir	0	0	 0.000
 291.992	 0.689	complex	1	0	 2147483.647
 292.681	 0.936	ISI	0	0	 0.000
 293.617	 0.355	croix	0	0	 0.000
 293.972	 0.669	Noir	0	0	 0.000
 294.641	 0.688	pseudocomplex	1	0	 2147483.647
 295.329	 0.669	ISI	0	0	 0.000
 295.998	 0.355	croix	0	0	 0.000
 296.353	 0.669	Noir	0	0	 0.000
 297.022	 0.689	pseudocomplex	1	0	 2147483.647
 297.711	 1.357	ISI	0	0	 0.000
 299.068	 0.335	croix	0	0	 0.000
 299.403	 0.689	Noir	0	0	 0.000
 300.092	 0.668	pseudocomplex	1	0	 2147483.647
 300.760	 0.890	ISI	0	0	 0.000
 301.650	 0.334	croix	0	0	 0.000
 301.984	 0.689	Noir	0	0	 0.000
 302.673	 0.669	H	0	0	 0.000
 303.342	 1.157	ISI	0	0	 0.000
 304.499	 0.355	croix	0	0	 0.000
 304.854	 0.669	Noir	0	0	 0.000
 305.523	 0.688	complex	1	0	 2147483.647
 306.211	 0.602	ISI	0	0	 0.000
 306.813	 0.335	croix	0	0	 0.000
 307.148	 0.689	Noir	0	0	 0.000
 307.837	 0.689	pseudocomplex	1	0	 2147483.647
 308.526	 0.735	ISI	0	0	 0.000
 309.261	 0.336	croix	0	0	 0.000
 309.597	 0.689	Noir	0	0	 0.000
 310.286	 0.689	H	0	0	 0.000
 310.975	 0.535	ISI	0	0	 0.000
 311.510	 0.334	croix	0	0	 0.000
 311.844	 0.689	Noir	0	0	 0.000
 312.533	 0.669	complex	1	0	 2147483.647
 313.202	 0.555	ISI	0	0	 0.000
 313.757	 0.334	croix	0	0	 0.000
 314.091	 0.689	Noir	0	0	 0.000
 314.780	 0.669	complex	1	0	 2147483.647
 315.449	 0.689	ISI	0	0	 0.000
 316.138	 0.334	croix	0	0	 0.000
 316.472	 0.689	Noir	0	0	 0.000
 317.161	 0.669	pseudocomplex	1	0	 2147483.647
 317.830	 0.622	ISI	0	0	 0.000
 318.452	 0.335	croix	0	0	 0.000
 318.787	 0.689	Noir	0	0	 0.000
 319.476	 0.668	complex	1	0	 2147483.647
 320.144	 0.622	ISI	0	0	 0.000
 320.766	 0.335	croix	0	0	 0.000
 321.101	 0.669	Noir	0	0	 0.000
 321.770	 0.689	H	0	0	 0.000
 322.459	 0.822	ISI	0	0	 0.000
 323.281	 0.335	croix	0	0	 0.000
 323.616	 0.668	Noir	0	0	 0.000
 324.284	 0.689	complex	1	0	 2147483.647
 324.973	 0.535	ISI	0	0	 0.000
 325.508	 0.355	croix	0	0	 0.000
 325.863	 0.669	Noir	0	0	 0.000
 326.532	 0.690	pseudocomplex	1	0	 2147483.647
 327.222	 0.602	ISI	0	0	 0.000
 327.824	 0.354	croix	0	0	 0.000
 328.178	 0.669	Noir	0	0	 0.000
 328.847	 0.689	pseudocomplex	1	0	 2147483.647
 329.536	 0.669	ISI	0	0	 0.000
 330.205	 4.080	Filler	0	0	 0.000
